"Time (s)","Linear Acceleration x (m/s^2)","Linear Acceleration y (m/s^2)","Linear Acceleration z (m/s^2)","Absolute acceleration (m/s^2)"
5.206666654E-3,2.154185144E-1,3.336108425E-1,-1.892453685E0,1.933670675E0
1.514366665E-2,-6.962447785E-2,3.720665181E-1,-1.367438039E0,1.418861463E0
2.508066664E-2,-1.416397360E-1,4.783153966E-1,-7.333747441E-1,8.869531829E-1
3.501866665E-2,-1.720245729E-1,5.291168833E-1,-1.872763771E-1,5.870515916E-1
4.495566664E-2,-1.904673488E-1,4.941517031E-1,-3.939620018E-2,5.310515768E-1
5.489266664E-2,-1.257893231E-1,4.528086725E-1,-1.611001468E-1,4.968016757E-1
6.483066664E-2,-1.689070933E-1,5.916166019E-1,-4.944259375E-1,7.893014744E-1
7.476766664E-2,-4.250033348E-1,7.218630382E-1,-4.794342613E-1,9.651794090E-1
8.470466663E-2,-2.567103819E-1,6.763643914E-1,-1.662240618E-1,7.422933712E-1
9.464266663E-2,-2.177520285E-1,5.951603070E-1,2.650963855E-1,6.869554793E-1
1.045796666E-1,-2.973876887E-1,5.718807873E-1,3.410786140E-1,7.292610597E-1
1.145166666E-1,-2.115167039E-1,6.568800071E-1,1.148837543E-1,6.995919788E-1
1.244546666E-1,-8.846113689E-2,7.494525406E-1,-7.044199169E-2,7.579357212E-1
1.343916666E-1,5.135060417E-2,7.975713247E-1,-2.297511363E-1,8.315903361E-1
1.443286666E-1,1.737301143E-1,7.553842485E-1,-2.868638152E-1,8.264855498E-1
1.542666666E-1,1.837846757E-1,6.280538186E-1,-3.515381134E-1,7.428374326E-1
1.642036666E-1,3.165838785E-2,8.088456336E-1,5.233842731E-2,8.111552400E-1
1.741406666E-1,-2.443153080E-2,9.058295989E-1,2.298903000E-1,9.348656117E-1
1.840786666E-1,-1.486632104E-1,8.805190489E-1,2.002273750E-1,9.151532917E-1
1.940156666E-1,-2.738331489E-1,9.406035751E-1,6.111042023E-2,9.815570093E-1
2.039526666E-1,-1.954003523E-1,1.015214632E0,-1.639325380E-1,1.046764502E0
2.138906666E-1,-7.394633766E-2,1.067864715E0,-3.893772000E-1,1.139042455E0
2.238276666E-1,-1.233758848E-2,1.094892300E0,-4.902182811E-1,1.199689680E0
2.337646666E-1,-9.020170681E-3,1.004017798E0,-6.948772609E-1,1.221059995E0
2.437026666E-1,-7.706122253E-2,1.203130694E0,-5.021273053E-1,1.305983817E0
2.536396666E-1,1.519147922E-1,1.162049326E0,-4.221841729E-1,1.245662963E0
2.635766666E-1,-1.313755336E-1,1.035549493E0,-6.477720916E-1,1.228507618E0
2.735146666E-1,-2.212333145E-1,1.128317032E0,-5.988086772E-1,1.296385489E0
2.834516666E-1,-1.559530256E-1,1.257398703E0,-4.666007924E-1,1.350218183E0
2.933886666E-1,-7.763625965E-2,1.186077582E0,-5.035177732E-1,1.290866983E0
3.033256666E-1,-8.778772037E-2,1.150342616E0,-3.845684499E-1,1.216095272E0
3.132636666E-1,-1.031844990E-1,1.137627845E0,-2.442054534E-1,1.168109780E0
3.232006666E-1,-7.698137149E-2,1.141112494E0,-8.264279187E-2,1.146688138E0
3.331376666E-1,-5.874463677E-2,1.216880714E0,1.988287210E-1,1.234415839E0
3.430756666E-1,1.391292340E-1,1.229125076E0,4.261462462E-1,1.308321833E0
3.530126666E-1,2.481944239E-1,1.250257206E0,5.804086590E-1,1.400577654E0
3.629496666E-1,1.771918304E-1,1.221388917E0,6.052564019E-1,1.374599267E0
3.728876666E-1,6.434955843E-2,1.121524029E0,4.360204393E-1,1.205019019E0
3.828246666E-1,-3.994722717E-2,1.077971043E0,1.931335330E-2,1.078883847E0
3.927616667E-1,-1.302252401E-1,9.728015605E-1,-5.364715111E-1,1.118527233E0
4.026996666E-1,-7.356974043E-2,8.128267103E-1,-1.023184971E0,1.308819030E0
4.126366667E-1,1.609837141E-1,6.231620380E-1,-1.232688369E0,1.390599618E0
4.225736667E-1,3.886723913E-1,4.273417094E-1,-1.065009520E0,1.211582619E0
4.325116667E-1,6.819366418E-1,1.607107222E-1,-4.486790764E-1,8.319726157E-1
4.424486667E-1,1.013379337E0,-1.263210543E-1,5.019513041E-1,1.137914672E0
4.523856667E-1,1.284508587E0,-3.555680144E-1,1.415595122E0,1.944299481E0
4.623236667E-1,1.256604504E0,-5.920447643E-1,1.706768920E0,2.200598107E0
4.722606667E-1,1.081576875E0,-7.310990077E-1,1.411094520E0,1.922368861E0
4.821976667E-1,7.147257806E-1,-8.156728426E-1,5.389893222E-1,1.211059295E0
4.921356667E-1,2.247336406E-1,-8.171283607E-1,-5.750186956E-1,1.024134009E0
5.020726667E-1,-2.406148244E-1,-7.380737127E-1,-1.706536201E0,1.874810418E0
5.120096667E-1,-5.139974454E-1,-4.575769307E-1,-2.584413185E0,2.674464719E0
5.219476667E-1,-3.575876427E-1,-2.825564638E-2,-3.109174477E0,3.129797635E0
5.318846666E-1,7.854974091E-2,2.933270350E-1,-3.072383212E0,3.087353140E0
5.418216666E-1,1.180443351E0,9.451664498E-1,-1.661621983E0,2.246725114E0
5.517596666E-1,2.593314402E0,1.628134979E0,3.143287718E-1,3.078133472E0
5.616966666E-1,3.268409362E0,1.601462174E0,1.342127781E0,3.879238048E0
5.716336666E-1,2.988942860E0,1.010744435E0,1.501284898E0,3.494172302E0
5.815716666E-1,1.537294829E0,2.705666019E-1,1.631398310E0,2.257862291E0
5.915086666E-1,-6.160519700E-1,-4.327233405E-1,1.445713545E0,1.629986863E0
6.014456666E-1,-3.010954118E0,-1.148278695E0,1.690838181E0,3.639137593E0
6.113826666E-1,-4.037523750E0,-1.089071251E0,3.632059398E0,5.538910515E0
6.213206666E-1,-2.175302217E0,-7.809761958E-1,7.338907608E0,7.694246450E0
6.312576666E-1,1.403264514E-1,-7.372230890E-1,1.141000636E1,1.143465936E1
6.411946666E-1,-1.322745430E-1,-1.016203103E0,1.378274800E1,1.382079259E1
6.511326666E-1,-1.167879293E0,-1.173944463E0,1.347762626E1,1.357897261E1
6.610696666E-1,-2.670844973E0,-1.964097572E0,1.183408386E1,1.228969621E1
6.710066666E-1,-2.801780211E0,-2.520575039E0,1.013889536E1,1.081667555E1
6.809446666E-1,-9.933276263E-1,-1.582926354E0,7.827444815E0,8.047437353E0
6.908816666E-1,2.217091683E-1,5.975733067E-1,5.148167573E0,5.187473197E0
7.008186666E-1,-9.599622443E-1,2.232814845E0,4.045921229E0,4.719795360E0
7.107566666E-1,-3.244520563E0,2.051032951E0,3.670764458E0,5.311135618E0
7.206936666E-1,-3.808695305E0,5.750950018E-1,3.612777620E0,5.281009024E0
7.306306666E-1,-2.588200719E0,-1.014613099E0,4.025955911E0,4.892498718E0
7.405686666E-1,-8.618661386E-1,-2.353060204E0,4.070583615E0,4.780100055E0
7.505056666E-1,9.608823037E-1,-2.718810267E0,2.951241183E0,4.126142095E0
7.604426666E-1,1.937519930E0,-2.131683742E0,1.294303989E0,3.158050328E0
7.703806666E-1,2.250194232E0,-3.064890297E0,-1.736959848E0,4.180186136E0
7.803176666E-1,2.148896191E0,-3.244673175E0,-5.157248883E0,6.460872611E0
7.902546666E-1,2.615879391E0,-2.724399036E0,-7.212537584E0,8.141613691E0
8.001926666E-1,3.214718474E0,-1.961758247E0,-7.769192514E0,8.633844022E0
8.101296666E-1,3.630136249E0,-1.062229461E0,-7.801968496E0,8.670463254E0
8.200666666E-1,3.256690373E0,-5.510611547E-2,-8.056017153E0,8.689561625E0
8.300046666E-1,2.960313722E0,1.130945794E0,-8.221001605E0,8.810639200E0
8.399416666E-1,2.424011781E0,2.513097035E0,-8.386339229E0,9.084171700E0
8.498786666E-1,2.591117310E0,3.311095791E0,-8.497077892E0,9.480378524E0
8.598166666E-1,3.349130759E0,2.948367861E0,-8.458373417E0,9.563139168E0
8.697536666E-1,2.459671902E0,4.132783372E0,-8.357898372E0,9.642839284E0
8.796906666E-1,2.137313734E0,5.447558463E0,-8.399012484E0,1.023657237E1
8.896295417E-1,2.244015479E0,6.586238807E0,-8.672691997E0,1.111889084E1
8.995665417E-1,1.421368663E0,7.028443261E0,-8.279332259E0,1.095292866E1
9.095035417E-1,8.910916919E-1,6.363319557E0,-7.702847666E0,1.003093926E1
9.194415417E-1,1.085571546E0,5.056055800E0,-7.368032590E0,9.001670405E0
9.293785417E-1,1.313210961E0,3.953049026E0,-6.601433381E0,7.805769809E0
9.393155416E-1,1.229141156E0,3.293885096E0,-5.820519605E0,6.799920255E0
9.492525416E-1,1.365434344E0,2.794201050E0,-5.321336957E0,6.163489066E0
9.591905416E-1,1.072087575E0,1.756029811E0,-5.543921161E0,5.913380954E0
9.691275416E-1,5.180245690E-1,3.505766849E-1,-6.137535757E0,6.169327243E0
9.790645416E-1,-1.550672820E-1,-5.057168744E-1,-4.979354364E0,5.007371097E0
9.890025416E-1,-2.392242104E-2,-1.547347801E0,-4.647847057E0,4.898707969E0
9.989395416E-1,-4.359377012E-2,-1.644980807E0,-4.055391380E0,4.376535332E0
1.008876542E0,-8.108231619E-1,-1.433059001E0,-1.866727690E0,2.489129279E0
1.018814542E0,-1.775828337E0,-1.495002065E0,2.321315963E0,3.282850173E0
1.028751542E0,-2.093340333E0,-1.749038003E0,7.250957884E0,7.747102550E0
1.038688542E0,-2.267649925E0,-1.995617572E0,1.211318667E1,1.248415063E1
1.048626542E0,-2.110764890E0,-2.647813375E0,1.598538244E1,1.634009474E1
1.058563542E0,-1.343377039E0,-2.781975692E0,1.793954297E1,1.820360548E1
1.068500542E0,-9.055650124E-1,-1.719052166E0,1.729028217E1,1.739911049E1
1.078438542E0,-1.656296631E0,-1.012706468E0,1.381305178E1,1.394880972E1
1.088375542E0,-1.792362801E0,1.382742248E-1,9.405505409E0,9.575761910E0
1.098312542E0,-7.920248021E-1,2.444465195E0,5.877527034E0,6.414673601E0
1.108250542E0,7.912716807E-1,4.739136419E0,3.390080565E0,5.880320663E0
1.118187542E0,1.112045911E0,6.441419063E0,1.719794177E0,6.759158059E0
1.128124542E0,4.959213629E-1,6.603826062E0,-8.925365388E-2,6.623022186E0
1.138062542E0,-4.766934521E-1,4.224971743E0,-1.166027772E0,4.408768949E0
1.147999542E0,-1.122619943E0,1.237653240E0,-9.223824817E-1,1.908625296E0
1.157936542E0,-8.620314686E-1,-5.947568491E-1,-1.188023828E0,1.583740691E0
1.167874542E0,-3.358613627E-1,-2.295598885E0,-6.604517788E-1,2.412213433E0
1.177811542E0,7.350914135E-1,-3.711472773E0,9.109833348E-1,3.891693740E0
1.187748542E0,1.518242408E0,-3.756691046E0,1.633480504E0,4.368757967E0
1.197686542E0,1.457213264E0,-3.194575401E0,1.670848889E0,3.888511090E0
1.207623542E0,1.280689040E0,-2.600266449E0,9.865316999E-1,3.061828672E0
1.217560542E0,9.309093301E-1,-2.204716928E0,2.001970865E0,3.120137217E0
1.227497542E0,3.773731586E-1,-1.662123820E0,3.460075244E0,3.857095642E0
1.237435542E0,2.103183536E-1,-1.215961751E0,2.873872579E0,3.127609373E0
1.247372542E0,-5.917085494E-1,-2.297516479E-1,2.256709492E-1,6.736706944E-1
1.257309542E0,-6.046529692E-1,8.649875285E-1,-2.123868354E0,2.371629276E0
1.267247542E0,-3.280046783E-1,1.591718666E0,-4.399673683E0,4.690232819E0
1.277184542E0,-3.041246496E-1,1.912905199E0,-6.144759992E0,6.442807886E0
1.287121542E0,-1.095281433E-1,2.093312413E0,-7.471739976E0,7.760209504E0
1.297059542E0,3.220342326E-1,2.587667453E0,-7.934835947E0,8.352326047E0
1.306996542E0,5.624989298E-1,2.867443566E0,-8.074433543E0,8.586915319E0
1.316933542E0,5.891689575E-1,2.850853553E0,-8.557467350E0,9.039067070E0
1.326871542E0,7.536808084E-1,2.739033740E0,-9.004999788E0,9.442476464E0
1.336808542E0,8.396376559E-1,2.635460547E0,-9.380748298E0,9.780034883E0
1.346745542E0,8.952557865E-1,2.576000796E0,-9.567612446E0,9.948691921E0
1.356683542E0,1.108922256E0,2.495114215E0,-9.427840018E0,9.815267237E0
1.366620542E0,1.133846159E0,2.195314459E0,-9.048587272E0,9.379869099E0
1.376557542E0,9.519663231E-1,1.934285835E0,-8.171312551E0,8.450920091E0
1.386495542E0,9.502481188E-1,1.532526864E0,-7.061057861E0,7.287670972E0
1.396432542E0,1.247204667E0,1.130570475E0,-6.243065135E0,6.466032119E0
1.406369542E0,1.789708604E0,8.844124174E-1,-5.910829850E0,6.238842179E0
1.416307542E0,1.876707718E0,6.117482000E-1,-5.244508052E0,5.603671334E0
1.426244542E0,1.939254507E0,4.433095783E-1,-4.448696154E0,4.873205198E0
1.436181542E0,1.963893942E0,2.189313023E-1,-3.209731384E0,3.769242084E0
1.446119542E0,1.539477010E0,-2.463219993E-1,-1.243408654E0,1.994173782E0
1.456056542E0,3.232720882E-2,-4.264956173E-1,7.952341926E-1,9.029623365E-1
1.465993542E0,-2.241792514E0,-2.509358179E-2,4.061000029E0,4.638748172E0
1.475931542E0,-3.722283105E0,5.908621284E-1,9.645064080E0,1.035527743E1
1.485868542E0,-3.504103901E0,8.728448707E-1,1.472549458E1,1.516182024E1
1.495805542E0,-3.213952781E0,-2.509286916E-1,1.699714956E1,1.730016043E1
1.505743542E0,-1.376692134E0,-6.708529522E-1,1.867068817E1,1.873339055E1
1.515680542E0,-1.743853131E-1,-6.010860215E-1,1.879696697E1,1.880738371E1
1.525617542E0,-3.410938168E-1,-9.061119463E-1,1.721689494E1,1.724409624E1
1.535554542E0,-3.804119566E-1,-8.452920596E-1,1.471066020E1,1.473983566E1
1.545492542E0,3.310605794E-1,4.775008795E-1,1.227700811E1,1.229075003E1
1.555429542E0,1.186983900E0,2.056176015E0,9.904013872E0,1.018461003E1
1.565366542E0,2.010648133E0,2.470820496E0,6.908826186E0,7.607860350E0
1.575304542E0,1.952689362E0,7.389636590E-1,4.416421278E0,4.885062941E0
1.585241542E0,1.516415738E0,-2.189649092E0,4.852552230E0,5.535462309E0
1.595178542E0,2.771234064E0,-3.170122930E0,5.500987396E0,6.927501711E0
1.605116542E0,4.143751579E0,-2.906433677E0,3.263443907E0,6.022300225E0
1.615053542E0,4.882960967E0,-2.614111486E0,-3.617374116E-1,5.550472108E0
1.624990542E0,4.447860003E0,-2.340587362E0,-2.949686993E0,5.827732077E0
1.634928542E0,2.833445515E0,-1.679563433E0,-4.149873614E0,5.298188164E0
1.644865542E0,2.336228701E-1,-2.533867880E-1,-4.478104725E0,4.491347954E0
1.654802542E0,-2.139046410E0,1.708955486E0,-5.256324690E0,5.926634597E0
1.664740542E0,-4.023236664E0,3.304050773E0,-5.788145326E0,7.784973415E0
1.674677542E0,-4.931508937E0,4.282242005E0,-5.459458131E0,8.512523719E0
1.684614542E0,-4.751864930E0,4.548398490E0,-5.114680569E0,8.332352997E0
1.694552542E0,-3.890850146E0,4.036822377E0,-5.372249249E0,7.765031343E0
1.704489542E0,-2.631141209E0,3.461290003E0,-6.124939685E0,7.511212864E0
1.714426542E0,-1.424239353E0,3.048185679E0,-6.812424311E0,7.597961481E0
1.724364542E0,-4.537990446E-1,2.640580954E0,-7.060936239E0,7.552179945E0
1.734301542E0,2.679645909E-1,2.171556344E0,-6.954291796E0,7.290379713E0
1.744238542E0,6.631295112E-1,1.778592755E0,-6.612477018E0,6.879533796E0
1.754176542E0,1.098505003E0,1.225762488E0,-5.806094524E0,6.034893581E0
1.764113542E0,1.757379056E0,6.690411924E-1,-5.163374426E0,5.495128091E0
1.774050542E0,2.344253128E0,2.158375405E-1,-5.202501655E0,5.710353057E0
1.783988542E0,2.717643748E0,5.054077394E-2,-5.634045466E0,6.255446444E0
1.793925542E0,2.873997125E0,2.305090085E-1,-6.209826638E0,6.846527642E0
1.803862542E0,2.785843040E0,5.847720706E-1,-6.850058160E0,7.417963104E0
1.813799542E0,2.373145390E0,8.558285961E-1,-7.396175823E0,7.814581143E0
1.823737542E0,1.865484572E0,8.579764245E-1,-7.892785696E0,8.155502576E0
1.833674542E0,1.423843789E0,8.163889803E-1,-8.432141638E0,8.590392000E0
1.843611542E0,8.441514140E-1,6.334186390E-1,-8.905669627E0,8.967985409E0
1.853549542E0,-8.524560682E-2,-6.729502936E-2,-9.065788611E0,9.066439134E0
1.863486542E0,-5.194271699E-2,-1.347953143E-2,-8.562094252E0,8.562262419E0
1.873423542E0,-7.205477802E-1,-6.181663232E-1,-7.050291383E0,7.113924886E0
1.883361542E0,-3.294917130E0,-1.735645979E0,-5.015764391E0,6.247146411E0
1.893298375E0,-7.935600763E0,-1.720860563E0,-2.454745916E0,8.482976957E0
1.903235375E0,-1.219439631E1,2.874586232E-1,1.599797033E0,1.230224713E1
1.913173375E0,-1.300468474E1,2.472237569E0,6.863308536E0,1.491102907E1
1.923110375E0,-9.264371749E0,3.062584740E0,1.370156058E1,1.682084337E1
1.933047375E0,-5.566116607E0,2.337884633E0,2.170907917E1,2.253289767E1
1.942985375E0,6.299997720E-1,3.014049634E0,3.102559756E1,3.117802269E1
1.952922375E0,2.088536553E0,1.762681165E-1,3.090059813E1,3.097160022E1
1.962859375E0,1.210584286E0,-2.948479250E0,2.326358952E1,2.348092080E1
1.972797375E0,5.535965440E0,6.546023704E-1,1.621647025E1,1.714786649E1
1.982734375E0,8.667563404E0,4.977113711E0,9.674822899E0,1.391044623E1
1.992671375E0,8.054151306E0,7.284016287E0,5.220796423E0,1.204918926E1
2.002609375E0,2.532039382E0,8.431609542E0,3.618924213E0,9.518396680E0
2.012546375E0,-2.637888311E0,9.423599617E0,3.216712375E0,1.030096709E1
2.022483375E0,-5.101807923E0,8.698740174E0,4.397487994E0,1.100156468E1
2.032421375E0,-5.714487950E0,4.845977036E0,6.897866165E0,1.018427335E1
2.042358375E0,-4.496649170E0,-7.395342741E-2,9.418028975E0,1.043669453E1
2.052295375E0,-1.951666099E0,-4.674597776E0,1.052270893E1,1.167853878E1
2.062233375E0,1.527678060E0,-7.687607483E0,9.883773150E0,1.261436010E1
2.072170375E0,4.716043133E0,-7.963883160E0,7.659782923E0,1.201402398E1
2.082107375E0,6.207344495E0,-6.166779436E0,3.911904216E0,9.584533838E0
2.092044375E0,5.323241980E0,-4.441713409E0,-1.109389302E0,7.021144338E0
2.101982375E0,3.572725362E0,-3.128373810E0,-5.691662174E0,7.412564166E0
2.111919375E0,1.804780972E0,-1.522822532E0,-8.965364437E0,9.271137055E0
2.121856375E0,3.590755398E-1,-1.542765923E-1,-1.061362612E1,1.062081898E1
2.131794375E0,-6.360588031E-1,6.855999224E-1,-1.170469668E1,1.174199908E1
2.141731375E0,-1.425903178E0,8.938858569E-1,-1.325683422E1,1.336322886E1
2.151668375E0,-1.124422201E0,1.074526887E0,-1.426458196E1,1.434911955E1
2.161606375E0,-1.187119702E0,1.072413630E0,-1.489556202E1,1.498122465E1
2.171543375E0,-2.103201078E0,5.293007782E-1,-1.593098580E1,1.607793278E1
2.181480375E0,-2.043470016E0,1.383383615E-1,-1.640072070E1,1.652811382E1
2.191418375E0,-1.209059332E0,2.337760672E-2,-1.574831761E1,1.579467881E1
2.201355375E0,-1.546363788E-1,1.450510747E-1,-1.390169089E1,1.390330759E1
2.211292375E0,4.648628537E-1,-8.229543071E-2,-1.252080543E1,1.252970226E1
2.221230375E0,7.369590873E-1,-9.606121624E-1,-1.159515260E1,1.165819232E1
2.231167375E0,9.939884347E-1,-1.254652558E0,-1.085622826E1,1.097359823E1
2.241104375E0,9.851285143E-1,-9.553047178E-1,-1.055556677E1,1.064439173E1
2.251042375E0,7.279880697E-1,-6.993457762E-1,-1.060841625E1,1.065633832E1
2.260979375E0,7.185144840E-1,-3.560861508E-1,-1.047526111E1,1.050591052E1
2.270916375E0,9.291987272E-1,-1.340146379E-1,-9.857895713E0,9.902498578E0
2.280854375E0,1.265798228E0,-3.089467753E-1,-9.132894182E0,9.225369879E0
2.290791375E0,1.580493620E0,-9.008091065E-1,-7.942702791E0,8.148370681E0
2.300728375E0,1.677410635E0,-1.351616496E0,-5.541265356E0,5.945266633E0
2.310666375E0,1.449708363E0,-1.183813905E0,-1.953454762E0,2.705375243E0
2.320603375E0,1.277993619E0,-4.466373749E-1,2.288178037E0,2.658667216E0
2.330540375E0,8.758784793E-1,5.046243953E-1,8.110333693E0,8.173085189E0
2.340477375E0,1.548689445E0,2.057735175E0,1.509079821E1,1.530898114E1
2.350415375E0,2.845496626E0,2.963757733E0,2.228278926E1,2.265840701E1
2.360352375E0,2.201779140E0,2.385853728E0,2.861384330E1,2.879743318E1
2.370289375E0,-9.548317511E-1,8.643635575E-1,3.119982822E1,3.122640083E1
2.380227375E0,-4.063709044E0,5.100217408E-2,2.981004329E1,3.008579421E1
2.390164375E0,-5.119902132E0,-8.992169827E-2,2.596185735E1,2.646203924E1
2.400101375E0,-4.346128975E0,1.095831363E0,2.187456473E1,2.232904534E1
2.410039375E0,-3.872685186E0,4.048386123E0,1.840293481E1,1.923681705E1
2.419976375E0,-5.349797695E0,5.608449864E0,1.493165454E1,1.682347624E1
2.429913375E0,-6.599192728E0,4.355400613E0,1.110533602E1,1.363258403E1
2.439851375E0,-4.744084625E0,2.792574939E0,8.426569827E0,1.006538091E1
2.449788375E0,-9.562446577E-1,1.826173303E0,7.630749158E0,7.904280201E0
2.459725375E0,1.090601248E0,1.355037848E0,8.512781759E0,8.688670320E0
2.469663375E0,4.538651547E-1,4.209939356E-1,9.641189130E0,9.661043283E0
2.479600375E0,-1.007817611E0,-5.599244738E-1,8.925520924E0,8.999674190E0
2.489537375E0,-1.256929025E0,-5.851218072E-1,4.541117830E0,4.748051100E0
2.499475375E0,-5.696603072E-1,-2.136375621E-1,-2.082377681E0,2.169435567E0
2.509412375E0,-3.509080759E-1,-8.494854086E-2,-8.288400121E0,8.296259958E0
2.519349375E0,-7.058157203E-1,-5.441726779E-2,-1.284236604E1,1.286186233E1
2.529287375E0,-8.379929803E-1,-1.342700881E-1,-1.571832841E1,1.574122323E1
2.539224375E0,-6.840710948E-1,-6.152942805E-2,-1.750949663E1,1.752296240E1
2.549161375E0,-5.869883846E-1,1.433227839E-1,-1.865100878E1,1.866079380E1
2.559099375E0,-6.331897205E-1,5.286463651E-1,-1.932692703E1,1.934452130E1
2.569036375E0,-6.779785153E-1,1.268594220E0,-1.947547554E1,1.952852103E1
2.578973375E0,-6.682869016E-1,1.954601401E0,-1.896664850E1,1.907880576E1
2.588910375E0,-7.838502485E-1,2.215800617E0,-1.798793335E1,1.814083625E1
2.598848375E0,-1.077237656E0,2.015826573E0,-1.693616544E1,1.708969565E1
2.608785375E0,-1.149420364E0,1.723150041E0,-1.597559304E1,1.610931364E1
2.618722375E0,-1.024545472E0,1.559231390E0,-1.474228311E1,1.485987238E1
2.628660375E0,-8.593487661E-1,1.208533010E0,-1.336258346E1,1.344461487E1
2.638597375E0,-6.363584729E-1,7.505711860E-1,-1.187713691E1,1.191783078E1
2.648534375E0,-4.361938823E-1,2.441579448E-1,-1.035541190E1,1.036746999E1
2.658472375E0,-2.306954616E-1,-4.733389775E-1,-8.808706419E0,8.824430801E0
2.668409375E0,3.827240188E-1,-9.549543234E-1,-6.695097005E0,6.773679897E0
2.678346375E0,1.086966911E0,-1.294548110E0,-4.518272758E0,4.824120707E0
2.688284375E0,1.438704926E0,-1.404254447E0,-3.076538828E0,3.675172592E0
2.698221375E0,1.154919451E0,-1.237737440E0,-2.833402830E0,3.300606688E0
2.708158375E0,7.398511201E-2,-8.508458181E-1,-3.836188620E0,3.930108845E0
2.718096375E0,-1.038300608E0,2.261966870E-1,-5.222940597E0,5.329947615E0
2.728033375E0,-1.833090851E0,1.754144230E0,-5.774893196E0,6.307664820E0
2.737970375E0,-2.033666574E0,3.003599783E0,-3.545074464E0,5.071978346E0
2.747908375E0,-1.473833390E0,2.921709820E0,3.463450257E0,4.764877839E0
2.757845375E0,8.661030310E-1,1.911636207E0,1.501663914E1,1.516258351E1
2.767782375E0,4.205719786E0,-1.245114872E-1,2.838402901E1,2.869419253E1
2.777720375E0,5.882493074E0,-2.503661383E0,3.586597647E1,3.643130952E1
2.787657375E0,5.878885927E0,-2.104551492E0,3.634846064E1,3.688090330E1
2.797594375E0,3.874610382E0,-1.040096800E0,3.130800638E1,3.156399326E1
2.807532375E0,1.959651057E0,1.398889042E0,2.546054515E1,2.557413698E1
2.817469375E0,-1.766591637E0,4.800987389E0,2.020971509E1,2.084713193E1
2.827406375E0,-7.186680611E0,5.798925253E0,1.617106546E1,1.862201037E1
2.837343375E0,-9.435976419E0,4.474122187E0,1.271469091E1,1.645353413E1
2.847281375E0,-9.021032268E0,1.133035954E0,1.154118865E1,1.469223703E1
2.857218375E0,-6.672553650E0,-2.481579081E0,1.209280211E1,1.403271427E1
2.867155375E0,-3.631618811E0,-5.367317707E0,1.286872061E1,1.440835607E1
2.877093375E0,-1.261830015E0,-7.096518300E0,1.338321360E1,1.520076292E1
2.887030375E0,4.512665424E-1,-7.303162994E0,1.114222026E1,1.333000013E1
2.896967000E0,1.653803379E0,-6.991846123E0,5.314428472E0,8.936673196E0
2.906905000E0,2.604709455E0,-6.108545262E0,-6.763854414E-1,6.675053095E0
2.916842000E0,3.567515201E0,-4.830652653E0,-5.480351402E0,8.129982857E0
2.926779000E0,4.338189333E0,-3.618868665E0,-9.025435807E0,1.064775040E1
2.936717000E0,4.328659249E0,-2.846622800E0,-1.175088968E1,1.284227241E1
2.946654000E0,3.814128245E0,-2.311626980E0,-1.406304598E1,1.475332016E1
2.956591000E0,3.445251968E0,-1.650730813E0,-1.573997831E1,1.619696239E1
2.966529000E0,3.589460678E0,-1.121184159E0,-1.707990637E1,1.748898177E1
2.976466000E0,2.939238603E0,-1.281640089E0,-1.826728993E1,1.854657937E1
2.986403000E0,2.212113071E0,-1.750840992E0,-1.961379493E1,1.981564635E1
2.996341000E0,2.663550571E0,-1.129109768E0,-1.888102772E1,1.910137687E1
3.006278000E0,2.648749514E0,-6.882858409E-1,-1.771747507E1,1.792759142E1
3.016215000E0,2.254488281E0,-5.870398401E-1,-1.714153602E1,1.729912109E1
3.026153000E0,2.179671257E0,-2.649594145E-1,-1.649606072E1,1.664155009E1
3.036090000E0,2.290092416E0,-1.117005301E-1,-1.610410782E1,1.626650820E1
3.046027000E0,2.387204435E0,-1.260281087E-1,-1.573566658E1,1.591621282E1
3.055964000E0,2.312921554E0,-1.330478373E-1,-1.522529353E1,1.540054774E1
3.065902000E0,2.234855816E0,-1.594866076E-1,-1.457658120E1,1.474777055E1
3.075839000E0,2.115475845E0,-2.552613688E-1,-1.377309542E1,1.393694923E1
3.085776000E0,1.928615059E0,-3.233743414E-1,-1.275665287E1,1.290567005E1
3.095714000E0,1.781245783E0,-6.095642649E-1,-1.161222413E1,1.176384947E1
3.105651000E0,1.564195091E0,-1.056553131E0,-1.023682803E1,1.040940243E1
3.115588000E0,1.547237873E0,-1.473128800E0,-8.606061221E0,8.867262443E0
3.125526000E0,1.237245397E0,-1.744740738E0,-6.859313718E0,7.185059575E0
3.135463000E0,4.204758357E-1,-1.666462016E0,-4.947838456E0,5.237843160E0
3.145400000E0,-5.944724552E-1,-1.233630356E0,-3.203135725E0,3.483578595E0
3.155338000E0,-1.706747724E0,-1.567586988E-1,-1.201963005E0,2.093388676E0
3.165275000E0,-3.470768632E0,1.558660117E0,2.020381408E0,4.307852979E0
3.175212000E0,-5.364781185E0,4.102209158E0,7.865879733E0,1.036730732E1
3.185150000E0,-6.291618660E0,4.457742089E0,1.629949487E1,1.803134667E1
3.195087000E0,-4.484156009E0,1.138919130E0,2.813681809E1,2.851465105E1
3.205024000E0,-1.199508417E-1,-2.794481424E0,4.091206979E1,4.100757209E1
3.214962000E0,3.550539857E0,-7.392927695E0,4.756045690E1,4.826239502E1
3.224899000E0,4.541976786E0,-1.080816415E1,4.480548745E1,4.631390364E1
3.234836000E0,4.270818884E0,-9.744753259E0,3.429392916E1,3.590645746E1
3.244774000E0,9.404202649E-1,-5.300297506E0,2.303158370E1,2.365230204E1
3.254711000E0,-2.290002661E0,-1.661066205E0,1.495167892E1,1.521696276E1
3.264648000E0,-3.122680376E0,-5.338178254E-1,1.238525294E1,1.278399720E1
3.274585000E0,-4.278730459E0,-1.576916586E0,1.443587497E1,1.513897905E1
3.284523000E0,-5.119630821E0,-1.989859381E0,1.592071458E1,1.684159472E1
3.294460000E0,-5.438128073E0,-1.599013214E0,1.395910938E1,1.506608161E1
3.304397000E0,-4.713475621E0,-8.999912272E-1,8.770581404E0,9.997496427E0
3.314335000E0,-3.517586119E0,-9.494512895E-1,1.206167738E0,3.837930492E0
3.324272000E0,-1.379813524E0,-8.284281050E-1,-5.338723653E0,5.576033423E0
3.334209000E0,5.653497398E-1,-1.390548428E0,-9.916618130E0,1.002958426E1
3.344147000E0,2.222847828E0,-1.877771765E0,-1.299108880E1,1.331298116E1
3.354084000E0,3.626086760E0,-1.649876389E0,-1.459360946E1,1.512759183E1
3.364021000E0,4.365226566E0,-1.244540675E0,-1.600925780E1,1.664032511E1
3.373959000E0,4.180315388E0,-5.246896639E-1,-1.740981329E1,1.791234030E1
3.383896000E0,3.465244768E0,2.039543903E-1,-1.859860369E1,1.891976686E1
3.393833000E0,2.545390914E0,1.053222557E0,-1.916682441E1,1.936376644E1
3.403771000E0,1.584279838E0,1.885216001E0,-1.913123943E1,1.928907214E1
3.413708000E0,1.319190177E0,2.229461760E0,-1.860712659E1,1.878658890E1
3.423645000E0,1.588801198E0,2.275332289E0,-1.797379712E1,1.818677567E1
3.433583000E0,1.343731965E0,2.247789857E0,-1.733997181E1,1.753661305E1
3.443520000E0,1.481639130E0,1.759586526E0,-1.686172103E1,1.701790337E1
3.453457000E0,1.908008302E0,1.313136116E0,-1.605591624E1,1.622212281E1
3.463394000E0,2.464775060E0,8.913710426E-1,-1.478856031E1,1.501902708E1
3.473332000E0,2.917785169E0,1.755277859E-1,-1.352295153E1,1.383526286E1
3.483269000E0,3.438579710E0,-5.460267020E-1,-1.216814933E1,1.265645423E1
3.493206000E0,3.996152653E0,-1.318810401E0,-1.067562414E1,1.147507942E1
3.503144000E0,4.394029366E0,-2.076037691E0,-9.092809764E0,1.031002502E1
3.513081000E0,4.682935613E0,-2.715481448E0,-7.741549802E0,9.446444770E0
3.523018000E0,4.750794598E0,-3.230117409E0,-6.679004883E0,8.809813506E0
3.532956000E0,4.620324505E0,-3.576110315E0,-5.904233022E0,8.306378940E0
3.542893000E0,4.015887591E0,-3.812680767E0,-5.336616316E0,7.690472123E0
3.552830000E0,3.047224689E0,-3.818427703E0,-4.611028309E0,6.717704258E0
3.562768000E0,1.709269482E0,-3.603172984E0,-3.386943533E0,5.232193059E0
3.572705000E0,7.115635333E-1,-3.061110365E0,-1.179114425E0,3.356639712E0
3.582642000E0,4.574521657E-2,-1.662174545E0,1.498343748E0,2.238291945E0
3.592580000E0,-3.869878084E-1,3.118524395E-1,5.044119878E0,5.068545832E0
3.602517000E0,2.716230841E-1,1.175434626E0,1.226786774E1,1.232704363E1
3.612454000E0,9.207302047E-1,2.373399451E-2,2.297470900E1,2.299316336E1
3.622392000E0,3.488010317E-2,-3.235298919E0,3.381042289E1,3.396487998E1
3.632329000E0,6.534226947E-2,-6.143941966E0,4.091479225E1,4.137357269E1
3.642266000E0,1.305724770E0,-7.703970332E0,4.069059597E1,4.143405214E1
3.652204000E0,8.175723106E-1,-7.977351052E0,3.459394745E1,3.551123420E1
3.662141000E0,-3.612296906E-1,-4.400559829E0,2.914215795E1,2.947474823E1
3.672078000E0,-1.727407398E0,-1.936324028E0,2.540051763E1,2.553271594E1
3.682015000E0,-1.265789165E0,-1.435590261E0,2.307757790E1,2.315680771E1
3.691953000E0,3.761949447E-1,-2.244103772E0,2.066605051E1,2.079093956E1
3.701890000E0,2.425178593E0,-3.432239574E0,1.697295846E1,1.748551053E1
3.711827000E0,4.005441540E0,-4.196910663E0,1.176083462E1,1.311391826E1
3.721765000E0,4.404069035E0,-3.851109253E0,5.768372966E0,8.215898808E0
3.731702000E0,3.282069920E0,-2.935302550E0,8.106170475E-2,4.403924956E0
3.741639000E0,7.742446619E-1,-1.947171637E0,-4.670466426E0,5.119002717E0
3.751577000E0,-1.858023379E0,-1.345585970E0,-9.112009681E0,9.396359556E0
3.761514000E0,-3.429017174E0,-8.737903655E-2,-1.225234923E1,1.272343726E1
3.771451000E0,-5.182003655E0,-3.743679821E-3,-1.512891972E1,1.599179126E1
3.781389000E0,-6.424207199E0,-7.350330144E-2,-1.788495570E1,1.900388069E1
3.791326000E0,-7.072509633E0,8.358242480E-1,-1.923161741E1,2.050790343E1
3.801263000E0,-7.988358436E0,1.437516772E0,-1.992126492E1,2.151132541E1
3.811201000E0,-8.942447444E0,1.855634645E0,-2.009840281E1,2.207615324E1
3.821138000E0,-9.357165307E0,2.133362624E0,-2.062007502E1,2.274412611E1
3.831075000E0,-8.724237542E0,2.032818582E0,-2.009495763E1,2.200118166E1
3.841012000E0,-7.446873522E0,1.682361911E0,-1.895553879E1,2.043523226E1
3.850950000E0,-6.193381344E0,1.183936916E0,-1.773304387E1,1.882074717E1
3.860887000E0,-5.033595475E0,5.765005262E-1,-1.676201197E1,1.751098174E1
3.870824000E0,-3.644532386E0,-1.186005369E-1,-1.601288073E1,1.642282045E1
3.880762000E0,-2.188172816E0,-7.502505393E-1,-1.519813204E1,1.537316473E1
3.890699125E0,-1.109100157E0,-1.688847496E0,-1.447645231E1,1.461677052E1
3.900636125E0,1.251099497E-2,-2.665988275E0,-1.362490125E1,1.388328434E1
3.910574125E0,1.269997113E0,-3.480734334E0,-1.221374007E1,1.276337928E1
3.920511125E0,2.291120941E0,-4.097751533E0,-1.078427477E1,1.176186146E1
3.930448125E0,2.782163387E0,-4.820402776E0,-9.709551852E0,1.119160905E1
3.940386125E0,2.862515825E0,-5.522365401E0,-8.696204821E0,1.069179567E1
3.950323125E0,3.122207921E0,-5.968058304E0,-7.590567092E0,1.014803483E1
3.960260125E0,3.985934059E0,-6.124395894E0,-6.850828823E0,1.001647398E1
3.970198125E0,4.258833846E0,-5.587086477E0,-6.301208094E0,9.437077115E0
3.980135125E0,2.665281055E0,-4.707852938E0,-7.481002550E0,9.232172092E0
3.990072125E0,1.377354624E0,-2.948090411E0,-8.192677692E0,8.815231738E0
4.000010125E0,-1.744527753E-1,-1.060358499E0,-6.084719612E0,6.178883934E0
4.009947125E0,-1.886780424E0,1.932212412E-2,4.283769590E-1,1.934895483E0
4.019884125E0,-2.678032955E0,-8.759562472E-1,1.163232452E1,1.196871478E1
4.029822125E0,-2.521771087E0,-3.826173509E0,2.728694401E1,2.766904853E1
4.039759125E0,-6.491482338E-1,-5.698409277E0,4.512050268E1,4.548354674E1
4.049696125E0,-3.722405897E0,-9.659582716E0,5.568768436E1,5.664169872E1
4.059634125E0,-5.712088253E0,-9.202913420E0,5.513303152E1,5.618694450E1
4.069571125E0,-7.013468542E0,-3.450933415E0,4.442848705E1,4.511084286E1
4.079508125E0,-9.107605559E0,1.536246424E0,3.273804822E1,3.401600114E1
4.089445125E0,-8.919168509E0,5.044846103E0,2.460743405E1,2.665572827E1
4.099383125E0,-6.378353333E0,6.761322570E0,2.026051570E1,2.229097060E1
4.109320125E0,-2.997247075E0,5.645166870E0,1.847057774E1,1.954516925E1
4.119257125E0,-5.822581333E-1,3.432560294E0,1.737540126E1,1.772078056E1
4.129195125E0,1.040000394E0,2.365593711E0,1.511667097E1,1.533595043E1
4.139132125E0,2.110058985E0,1.708428652E0,1.116027529E1,1.148576606E1
4.149069125E0,2.309664216E0,6.227705669E-1,6.067173287E0,6.521731646E0
4.159007125E0,2.052595765E0,-6.136647711E-1,5.238801169E-1,2.205489561E0
4.168944125E0,1.675864631E0,-1.949526603E0,-4.642750624E0,5.307005709E0
4.178881125E0,1.168367170E0,-3.183442010E0,-9.108365112E0,9.719140903E0
4.188819125E0,7.163479444E-1,-4.103608105E0,-1.255834923E1,1.323120891E1
4.198756125E0,3.604687851E-1,-5.103988935E0,-1.534624201E1,1.617676682E1
4.208693125E0,-1.571839924E-1,-5.674085444E0,-1.766716797E1,1.855663699E1
4.218631125E0,-5.852658679E-1,-5.782046095E0,-1.932897238E1,2.018375006E1
4.228568125E0,-1.323792667E0,-6.601783630E0,-2.121023684E1,2.225331707E1
4.238505125E0,-1.149456470E0,-7.075463061E0,-2.218863974E1,2.331778637E1
4.248442125E0,-4.934470405E-1,-7.371397077E0,-2.264214510E1,2.381696286E1
4.258380125E0,4.271354124E-1,-7.452818386E0,-2.249579865E1,2.370206539E1
4.268317125E0,1.301018931E0,-7.350748805E0,-2.170240399E1,2.295039210E1
4.278254125E0,1.776216008E0,-7.589754914E0,-2.095593441E1,2.235867863E1
4.288192125E0,2.223835715E0,-7.742674221E0,-1.996196622E1,2.152613632E1
4.298129125E0,2.704830744E0,-7.620273871E0,-1.868177917E1,2.035665876E1
4.308066125E0,3.267966728E0,-7.623544219E0,-1.755428513E1,1.941522494E1
4.318004125E0,4.143800696E0,-7.645915082E0,-1.676313463E1,1.888475005E1
4.327941125E0,5.101897386E0,-7.491849135E0,-1.600821348E1,1.839619687E1
4.337878125E0,5.822254474E0,-7.393075629E0,-1.483803711E1,1.757053100E1
4.347816125E0,6.118987804E0,-7.465268278E0,-1.316289871E1,1.632281056E1
4.357753125E0,5.429507523E0,-6.719189288E0,-1.118362322E1,1.413154220E1
4.367690125E0,3.063114498E0,-6.096075490E0,-8.536883982E0,1.092809201E1
4.377628125E0,1.251720764E0,-6.182652288E0,-5.613164474E0,8.443909616E0
4.387565125E0,-6.860172674E-1,-5.005033581E0,-3.758605424E0,6.296673373E0
4.397502125E0,-3.483793013E0,-3.198616704E0,-2.490996314E0,5.345374188E0
4.407439125E0,-4.198655180E0,-7.796604261E-1,-2.270328242E0,4.836420787E0
4.417377125E0,-2.755584576E0,2.034972988E0,-1.933189482E0,3.933393318E0
4.427314125E0,-1.812688600E0,4.903230633E0,-5.397348422E-1,5.255361481E0
4.437251125E0,-1.382230763E0,7.020660617E0,4.369797335E0,8.384233187E0
4.447189125E0,-1.244094533E0,8.281987479E0,1.432828621E1,1.659635121E1
4.457126125E0,-3.399785481E0,8.116225932E0,2.621495057E1,2.765240131E1
4.467063125E0,-5.207082363E0,7.665716093E0,3.563053717E1,3.681592167E1
4.477001125E0,-6.530211371E0,6.207210594E0,4.058826034E1,4.157619513E1
4.486938125E0,-7.510070229E0,2.886382697E0,3.939992836E1,4.021301674E1
4.496875125E0,-6.734848716E0,1.319250550E0,3.356981231E1,3.426413442E1
4.506813125E0,-5.921654216E0,2.705795242E0,2.616640231E1,2.696419712E1
4.516750125E0,-4.850178553E0,5.789682559E0,2.160610737E1,2.288817450E1
4.526687125E0,-8.463913069E0,6.228954050E0,2.109407371E1,2.356687588E1
4.536625125E0,-1.268502214E1,5.382377211E0,2.173313930E1,2.573342408E1
4.546562125E0,-1.310902246E1,5.454925954E0,1.892272421E1,2.365739163E1
4.556499125E0,-1.148020687E1,4.742207669E0,1.280274647E1,1.783799317E1
4.566437125E0,-7.086645861E0,2.104578390E0,7.754354035E0,1.071353379E1
4.576374125E0,-1.719234891E0,-2.027299541E0,4.102506489E0,4.888381279E0
4.586311125E0,3.134153490E0,-5.109963620E0,1.380690168E0,6.151499950E0
4.596248125E0,6.982781770E0,-6.402521045E0,-4.737952065E-1,9.485567926E0
4.606186125E0,8.903366994E0,-7.186747854E0,-2.318834989E0,1.167459996E1
4.616123125E0,7.830243877E0,-7.294027889E0,-4.346255860E0,1.155012996E1
4.626060125E0,5.599260380E0,-6.558358113E0,-6.654714380E0,1.089261224E1
4.635998125E0,3.030622398E0,-5.172750437E0,-9.222969954E0,1.100023609E1
4.645935125E0,8.432505043E-1,-3.802478253E0,-1.193229838E1,1.255187862E1
4.655872125E0,-4.435352808E-1,-2.720244882E0,-1.457730977E1,1.483557939E1
4.665810125E0,-8.750698824E-1,-1.922497848E0,-1.692713500E1,1.705841858E1
4.675747125E0,-6.575710018E-1,-1.695731569E0,-1.855359650E1,1.864252795E1
4.685684125E0,-4.599615714E-1,-1.751516784E0,-1.911033680E1,1.919594615E1
4.695622125E0,-7.741310797E-1,-1.545511483E0,-1.830450044E1,1.838593541E1
4.705559125E0,-2.935780998E-1,-1.395118027E0,-1.723975989E1,1.729860872E1
4.715496125E0,1.413459865E-1,-1.084108134E0,-1.619677566E1,1.623363210E1
4.725434125E0,1.720497890E-1,-7.576450744E-1,-1.554046547E1,1.555987449E1
4.735371125E0,-2.760591839E-1,-3.561640649E-1,-1.533799159E1,1.534460972E1
4.745308125E0,-2.937017684E-1,4.643564483E-2,-1.515442527E1,1.515734219E1
4.755245125E0,9.071750432E-2,2.311298184E-1,-1.482750628E1,1.482958506E1
4.765183125E0,4.057658491E-1,2.416521936E-1,-1.411634569E1,1.412424360E1
4.775120125E0,8.787665652E-1,6.487705951E-2,-1.313714055E1,1.316665871E1
4.785057125E0,1.519075929E0,-2.172107591E-1,-1.191609457E1,1.201449466E1
4.794995125E0,1.716408055E0,-5.786555906E-1,-1.049304016E1,1.064822946E1
4.804932125E0,1.094882506E0,-8.417933781E-1,-9.036220411E0,9.141152176E0
4.814869125E0,5.285050453E-1,-8.421271080E-1,-7.844339760E0,7.907095669E0
4.824807125E0,2.247017732E-1,-7.336110447E-1,-6.652853796E0,6.696950028E0
4.834744125E0,-5.063032405E-1,-9.503014015E-1,-5.390915315E0,5.497397899E0
4.844681125E0,-1.022113177E0,-8.092574968E-1,-4.258769234E0,4.453844231E0
4.854619125E0,-1.162524339E0,7.257322870E-2,-2.611807390E0,2.859767046E0
4.864556125E0,-1.407509738E0,8.876802801E-1,1.354536742E-1,1.669553126E0
4.874493125E0,-2.469616554E0,7.952048104E-1,6.174158623E0,6.697133067E0
4.884431125E0,-4.913379645E0,-3.654444002E-2,1.625870820E1,1.698494120E1
4.894368000E0,-8.257891104E0,-1.228341841E0,2.514776589E1,2.649739078E1
4.904305000E0,-1.025108939E1,-1.671765879E0,2.995700253E1,3.170649201E1
4.914242000E0,-9.004447811E0,-8.541689370E-1,3.107427914E1,3.236387661E1
4.924180000E0,-6.898592974E0,-9.800398287E-1,2.824034421E1,2.908724986E1
4.934117000E0,-6.763360325E0,-4.686581718E-1,2.360621999E1,2.456046224E1
4.944054000E0,-7.745217175E0,3.245119318E0,1.787295838E1,1.974745122E1
4.953992000E0,-9.419000198E0,6.118974355E0,1.228422358E1,1.664516629E1
4.963929000E0,-9.483320739E0,7.265788761E0,8.489079486E0,1.465569954E1
4.973866000E0,-8.533734671E0,7.705523352E0,6.663900356E0,1.328936739E1
4.983804000E0,-9.054250885E0,7.611969071E0,7.227373724E0,1.386205119E1
4.993741000E0,-1.036955281E1,5.975350367E0,9.520401442E0,1.529282450E1
5.003678000E0,-9.499136288E0,2.945400691E0,1.135763168E1,1.509651526E1
5.013616000E0,-5.598675073E0,-2.728962788E-1,1.245323150E1,1.365659583E1
5.023553000E0,-9.250584599E-1,-3.159629517E0,1.202372778E1,1.246631548E1
5.033490000E0,2.770915391E0,-5.213050032E0,9.464602633E0,1.115493459E1
5.043428000E0,4.902630123E0,-5.899343580E0,5.352311997E0,9.353356645E0
5.053365000E0,5.488947394E0,-5.460111265E0,8.131190711E-1,7.784762112E0
5.063302000E0,5.003900975E0,-4.552274902E0,-3.695881172E0,7.708551705E0
5.073239000E0,4.127183786E0,-3.577087093E0,-8.144117151E0,9.805908537E0
5.083177000E0,3.442826543E0,-2.799413550E0,-1.191760783E1,1.271688434E1
5.093114000E0,3.211784341E0,-2.220475320E0,-1.474155805E1,1.524990502E1
5.103051000E0,3.207382557E0,-1.884753194E0,-1.662626184E1,1.703737598E1
5.112989000E0,2.988478006E0,-1.670227623E0,-1.748369520E1,1.781573066E1
5.122926000E0,2.228215864E0,-1.943866790E0,-1.853378731E1,1.876818681E1
5.132863000E0,2.283138322E0,-2.065134242E0,-1.899502971E1,1.924288580E1
5.142801000E0,2.833524452E0,-2.122915696E0,-1.871536557E1,1.904732371E1
5.152738000E0,3.389377437E0,-2.184347275E0,-1.779766613E1,1.824873069E1
5.162675000E0,3.717100133E0,-2.087139507E0,-1.654343369E1,1.708385738E1
5.172613000E0,3.740509754E0,-1.842726185E0,-1.537790235E1,1.593320224E1
5.182550000E0,3.607735858E0,-1.602116331E0,-1.466616405E1,1.518811716E1
5.192487000E0,3.168669020E0,-1.366521195E0,-1.422613535E1,1.463867380E1
5.202425000E0,2.759130912E0,-1.099232762E0,-1.373523002E1,1.405267447E1
5.212362000E0,2.531193875E0,-9.525709252E-1,-1.319241662E1,1.346678098E1
5.222299000E0,2.501304955E0,-9.511047359E-1,-1.249820477E1,1.278148071E1
5.232236000E0,2.648277059E0,-1.124027368E0,-1.148332811E1,1.183822763E1
5.242174000E0,2.889720873E0,-1.435172623E0,-1.031068304E1,1.080372121E1
5.252111000E0,3.052867253E0,-1.572374761E0,-9.010807242E0,9.642977134E0
5.262048000E0,3.277869280E0,-1.635335825E0,-7.623228469E0,8.457680685E0
5.271986000E0,3.367264729E0,-1.794985424E0,-6.249172552E0,7.322062689E0
5.281923000E0,3.088479135E0,-1.778230666E0,-4.520264320E0,5.756179044E0
5.291860000E0,2.015667382E0,-1.586746340E0,-1.240220168E0,2.849355192E0
5.301798000E0,9.942949019E-2,-1.767295934E0,4.928682393E0,5.236900922E0
5.311735000E0,-1.789457028E0,-2.810507473E0,1.380105447E1,1.419754250E1
5.321672000E0,-2.552446750E0,-3.814183794E0,2.376779961E1,2.420684367E1
5.331610000E0,-4.039212719E0,-4.994411529E0,3.115858430E1,3.181378257E1
5.341547000E0,-5.522084734E0,-5.157502068E0,3.367789224E1,3.451512239E1
5.351484000E0,-6.151401844E0,-3.220765372E0,3.185222078E1,3.260026139E1
5.361422000E0,-8.312694132E0,-5.052113461E-1,2.606050690E1,2.735884029E1
5.371359000E0,-1.094661803E1,3.719846570E0,1.715450047E1,2.068677334E1
5.381296000E0,-1.352679082E1,9.520544114E0,8.741777435E0,1.870918231E1
5.391233000E0,-1.511017004E1,1.171175076E1,5.174556057E0,1.980551375E1
5.401171000E0,-1.403820233E1,9.835298563E0,7.539183515E0,1.872547758E1
5.411108000E0,-1.266048723E1,5.791231486E0,1.330123447E1,1.925484711E1
5.421045000E0,-1.049587255E1,2.372423405E0,1.623712613E1,1.947911698E1
5.430983000E0,-6.956778617E0,-5.683108429E-1,1.636949774E1,1.779551073E1
5.440920000E0,-3.441585471E0,-2.758321073E0,1.323420433E1,1.394980322E1
5.450857000E0,-3.994740989E-1,-3.505223351E0,7.916482122E0,8.666998297E0
5.460795000E0,2.022452492E0,-3.778473678E0,3.482963585E0,5.522518697E0
5.470732000E0,3.477126018E0,-4.189251688E0,6.066451156E-1,5.477978947E0
5.480669000E0,3.683618099E0,-4.256249084E0,-1.623702790E0,5.858422084E0
5.490607000E0,3.229238865E0,-3.666533120E0,-3.915961014E0,6.261485401E0
5.500544000E0,2.062439260E0,-2.855045422E0,-6.403606873E0,7.308291254E0
5.510481000E0,8.241678967E-1,-1.967843444E0,-9.062979024E0,9.310706167E0
5.520419000E0,2.037718110E-2,-1.292632562E0,-1.169576213E1,1.176699477E1
5.530356000E0,-3.733452310E-1,-8.257525653E-1,-1.387355643E1,1.390312274E1
5.540293000E0,-3.936025442E-1,-4.554818733E-1,-1.520512882E1,1.521704075E1
5.550230000E0,-2.699898472E-1,-2.988808301E-1,-1.600381755E1,1.600888504E1
5.560168000E0,2.600114275E-1,-2.283767300E-1,-1.632345442E1,1.632712241E1
5.570105000E0,7.378680369E-1,-1.879730728E-1,-1.634277362E1,1.636050222E1
5.580042000E0,1.023663931E0,-1.671612243E-1,-1.609814132E1,1.613152146E1
5.589980000E0,1.213127532E0,-1.266795982E-1,-1.575097809E1,1.579813397E1
5.599917000E0,1.394399842E0,-4.395399515E-2,-1.536251364E1,1.542572878E1
5.609854000E0,1.530658386E0,-3.090450816E-2,-1.487996866E1,1.495852057E1
5.619792000E0,1.658596634E0,-1.406661015E-1,-1.435580086E1,1.445198077E1
5.629729000E0,1.767130019E0,-2.978910061E-1,-1.374252384E1,1.385887618E1
5.639666000E0,1.802712958E0,-3.918173893E-1,-1.280958889E1,1.294174881E1
5.649604000E0,1.674701327E0,-2.927206057E-1,-1.175006171E1,1.187241594E1
5.659541000E0,1.518716617E0,-1.915016482E-1,-1.092704974E1,1.103374773E1
5.669478000E0,1.511634470E0,-2.743003415E-1,-1.018866335E1,1.030384104E1
5.679415000E0,1.491441403E0,-3.502835932E-1,-9.367317828E0,9.491772192E0
5.689353000E0,1.209723430E0,-3.965302451E-1,-8.668868503E0,8.761846160E0
5.699290000E0,9.761525267E-1,-6.688976432E-1,-7.659117510E0,7.749992183E0
5.709227000E0,1.155392929E0,-9.393111943E-1,-6.207615806E0,6.383708353E0
5.719165000E0,1.230246572E0,-1.087186547E0,-4.756269638E0,5.031657986E0
5.729102000E0,2.514854562E-1,-1.520627487E0,-3.740349247E0,4.045462320E0
5.739039000E0,-1.132945322E0,-1.745498976E0,-2.939996402E0,3.601931513E0
5.748977000E0,-2.351217016E0,-1.465347618E0,-2.203739566E-1,2.779213878E0
5.758914000E0,-2.832768700E0,-9.852979374E-1,6.535163378E0,7.190532033E0
5.768851000E0,-2.449200124E0,-3.400946738E-1,1.648959019E1,1.667395665E1
5.778789000E0,-3.628509554E0,2.725778979E-1,2.756531123E1,2.780443784E1
5.788726000E0,-8.753715110E0,5.589888462E-1,3.549561150E1,3.656334821E1
5.798663000E0,-1.734997874E1,-4.458977021E-1,3.861500983E1,4.233603159E1
5.808601000E0,-2.201928566E1,-6.510134956E-1,3.916033753E1,4.493111166E1
5.818538000E0,-1.960752438E1,1.440451197E0,3.578204554E1,4.082749925E1
5.828475000E0,-1.526297298E1,2.494387699E0,3.046630203E1,3.416688270E1
5.838412000E0,-1.126064275E1,1.416573507E0,2.518815612E1,2.762701511E1
5.848350000E0,-6.304040485E0,2.391935125E-2,2.042464236E1,2.137539507E1
5.858287000E0,-1.507079342E0,-1.319914793E0,1.636809323E1,1.649023770E1
5.868224000E0,2.253227475E0,-2.104553831E0,1.169201173E1,1.209170456E1
5.878162000E0,4.797845680E0,-2.473423092E0,6.197565027E0,8.218695591E0
5.888099000E0,6.060075937E0,-2.819754260E0,1.146027371E0,6.781512603E0
5.898036000E0,6.439263779E0,-2.944936130E0,-3.158670573E0,7.753319716E0
5.907974000E0,6.119632752E0,-2.813204793E0,-6.546621582E0,9.392671631E0
5.917911000E0,5.163711811E0,-2.825873663E0,-9.206575531E0,1.092751182E1
5.927848000E0,3.915984403E0,-2.773292576E0,-1.137688540E1,1.234745346E1
5.937786000E0,2.349186570E0,-2.405235348E0,-1.335109485E1,1.376791808E1
5.947723000E0,7.276328514E-1,-1.963646459E0,-1.521672385E1,1.536014458E1
5.957660000E0,-8.826245581E-1,-1.419749569E0,-1.675137822E1,1.683458901E1
5.967597000E0,-2.049103223E0,-8.422339658E-1,-1.799524237E1,1.813110394E1
5.977535000E0,-2.425300799E0,-3.266504632E-1,-1.887326612E1,1.903126266E1
5.987472000E0,-2.486484310E0,-4.863465473E-2,-1.956502916E1,1.972245764E1
5.997409000E0,-2.362595112E0,5.148900960E-2,-1.979737880E1,1.993792151E1
6.007347000E0,-2.108927987E0,1.456217995E-2,-1.967336871E1,1.978608667E1
6.017284000E0,-1.803384072E0,-3.735617242E-1,-1.907174167E1,1.916045597E1
6.027221000E0,-1.422442650E0,-1.100081997E0,-1.809266283E1,1.818180332E1
6.037159000E0,-9.456216556E-1,-1.857461169E0,-1.679862489E1,1.692743810E1
6.047096000E0,-3.694845338E-1,-2.258909799E0,-1.562438237E1,1.579115311E1
6.057033000E0,2.762794778E-1,-2.514532526E0,-1.484388433E1,1.505789182E1
6.066971000E0,8.102426796E-1,-2.716624286E0,-1.465298443E1,1.492469408E1
6.076908000E0,9.213247204E-1,-2.847228572E0,-1.488624273E1,1.518406310E1
6.086845000E0,8.622283736E-1,-2.793418108E0,-1.502695831E1,1.530869356E1
6.096783000E0,5.473528871E-1,-2.383284023E0,-1.452455385E1,1.472896135E1
6.106720000E0,-4.398152822E-1,-2.489707587E0,-1.267567127E1,1.292535197E1
6.116657000E0,-1.552280658E0,-2.920897349E0,-8.517613313E0,9.137338405E0
6.126594000E0,-2.657457188E0,-2.535749148E0,-1.362738047E0,3.917800075E0
6.136532000E0,-3.104150257E0,-1.585951265E0,8.030330919E0,8.754267811E0
6.146469000E0,-2.537633998E0,-1.804304131E0,1.780537276E1,1.807557464E1
6.156406000E0,-1.933171063E0,-2.616515861E0,2.587319017E1,2.607691077E1
6.166344000E0,-2.634312739E0,-2.049387398E0,3.088320851E1,3.106303527E1
6.176281000E0,-4.879187467E0,-5.084753349E-1,3.403680604E1,3.438850364E1
6.186218000E0,-8.659256265E0,1.580037245E0,3.521512524E1,3.629854380E1
6.196156000E0,-1.365447296E1,3.399664151E0,3.289465303E1,3.577793379E1
6.206093000E0,-1.625477536E1,5.787593933E0,2.813370503E1,3.300332293E1
6.216030000E0,-1.431737881E1,7.818045416E0,2.383649737E1,2.888404018E1
6.225968000E0,-1.127462227E1,8.502392426E0,2.150527798E1,2.572712120E1
6.235905000E0,-9.999691862E0,7.347561488E0,2.023203274E1,2.373427155E1
6.245842000E0,-9.305139706E0,4.781759405E0,2.004719758E1,2.261284986E1
6.255779000E0,-7.121019303E0,2.162151244E0,1.873061043E1,2.015488976E1
6.265717000E0,-3.641700287E0,-1.763745541E-1,1.588733984E1,1.630032687E1
6.275654000E0,-2.373430149E-1,-2.034567191E0,1.071368484E1,1.090774212E1
6.285591000E0,2.731389382E0,-2.962335397E0,3.425155088E0,5.288440823E0
6.295529000E0,4.630297809E0,-3.488743266E0,-3.492603305E0,6.768254222E0
6.305466000E0,5.512930918E0,-4.175513654E0,-9.077402351E0,1.141168502E1
6.315403000E0,5.538314266E0,-4.595507753E0,-1.299864106E1,1.485786949E1
6.325341000E0,4.604929956E0,-4.536269903E0,-1.513051250E1,1.645343530E1
6.335278000E0,3.436102537E0,-4.523339078E0,-1.626839704E1,1.723160292E1
6.345215000E0,2.533850850E0,-4.650366915E0,-1.734633124E1,1.813674503E1
6.355153000E0,2.049753434E0,-4.624070524E0,-1.841077241E1,1.909293215E1
6.365090000E0,5.329670190E-1,-5.253732619E0,-2.129471039E1,2.193970034E1
6.375027000E0,9.400383686E-1,-5.058129807E0,-2.276713285E1,2.334118008E1
6.384965000E0,1.413393938E0,-4.446451993E0,-2.294510572E1,2.341466409E1
6.394902000E0,1.599352499E0,-4.080154046E0,-2.278352844E1,2.320118001E1
6.404839000E0,1.769495803E0,-3.913032728E0,-2.209145667E1,2.250500830E1
6.414776000E0,2.158278926E0,-3.818621246E0,-2.098446648E1,2.143800060E1
6.424714000E0,2.513868575E0,-3.878471883E0,-1.971791981E1,2.025236878E1
6.434651000E0,2.703542603E0,-4.035838875E0,-1.845502063E1,1.908362976E1
6.444588000E0,2.945742169E0,-4.268874100E0,-1.714580449E1,1.791310399E1
6.454526000E0,3.284139834E0,-4.518865666E0,-1.559317578E1,1.656360022E1
6.464463000E0,3.857711052E0,-4.681695711E0,-1.377513961E1,1.505173347E1
6.474400000E0,4.464743253E0,-4.755187318E0,-1.167146344E1,1.337044493E1
6.484338000E0,4.438898267E0,-5.013501518E0,-9.219033024E0,1.139427862E1
6.494275000E0,3.282756091E0,-5.047991320E0,-6.898884165E0,9.157145114E0
6.504212000E0,1.356232142E0,-4.553695775E0,-4.855243703E0,6.793298334E0
6.514150000E0,-5.507572091E-1,-2.990981492E0,-2.847136186E0,4.165991868E0
6.524087000E0,-2.305306579E0,-1.180415431E0,-8.747610033E-2,2.591422597E0
6.534024000E0,-2.791054956E0,-2.063267519E-1,4.809311485E0,5.564354002E0
6.543961000E0,-1.776853062E0,-7.104145554E-1,1.196188412E1,1.211398231E1
6.553899000E0,3.844315519E-1,-9.419930197E-1,2.058291480E1,2.060804503E1
6.563836000E0,1.990735001E0,-1.061615504E0,2.909449612E1,2.918183952E1
6.573773000E0,2.398935119E0,-1.670865408E0,3.495025339E1,3.507230949E1
6.583711000E0,1.874903559E0,-2.022598964E0,3.612183192E1,3.622696387E1
6.593648000E0,9.228068434E-1,-1.887164440E0,3.394993278E1,3.401486290E1
6.603585000E0,-1.447013089E0,2.265410588E0,3.073336542E1,3.085069986E1
6.613523000E0,-9.498821708E0,6.818353972E0,2.561896961E1,2.816112868E1
6.623460000E0,-1.217086594E1,6.935227534E0,2.316135680E1,2.706798492E1
6.633397000E0,-1.057172614E1,3.760604295E0,2.621360571E1,2.851414847E1
6.643335000E0,-8.725142691E0,8.785669559E-1,2.720322825E1,2.858173582E1
6.653272000E0,-6.535986081E0,-9.500080906E-1,2.388328679E1,2.477968962E1
6.663209000E0,-5.182062128E0,-2.008721329E0,1.839645141E1,1.921765214E1
6.673147000E0,-4.112764552E0,-2.646000446E0,1.151317347E1,1.250876948E1
6.683084000E0,-2.064936606E0,-2.611793942E0,4.738580641E0,5.791336398E0
6.693021000E0,-3.848081857E-2,-2.444571176E0,-1.034680597E0,2.654801865E0
6.702958000E0,1.078570967E0,-2.417231788E0,-5.764671094E0,6.343323866E0
6.712896000E0,1.393482414E0,-2.305651564E0,-9.388601693E0,9.767479927E0
6.722833000E0,1.118554228E0,-2.604568830E0,-1.197329087E1,1.230425278E1
6.732770000E0,9.744236512E-1,-3.247736239E0,-1.405167315E1,1.445499257E1
6.742708000E0,1.183648649E0,-3.540588188E0,-1.584596962E1,1.627978937E1
6.752645000E0,1.662241203E0,-3.727381000E0,-1.764702080E1,1.811280647E1
6.762582000E0,1.993396508E0,-3.939491087E0,-1.932261061E1,1.982060798E1
6.772520000E0,2.259122638E0,-3.916023579E0,-2.051516194E1,2.100739739E1
6.782457000E0,2.417661997E0,-3.619528523E0,-2.121500816E1,2.165693071E1
6.792394000E0,2.582075761E0,-3.146500179E0,-2.145796231E1,2.184059810E1
6.802332000E0,2.627537862E0,-2.761869748E0,-2.139224896E1,2.172924747E1
6.812269000E0,2.650991337E0,-2.433119404E0,-2.117797658E1,2.148149243E1
6.822206000E0,2.442908812E0,-1.502284187E0,-2.044671209E1,2.064685682E1
6.832143000E0,2.129121346E0,-1.895747129E0,-2.077012861E1,2.096485767E1
6.842081000E0,2.752062213E0,-3.064075488E0,-1.995928352E1,2.037977928E1
6.852018000E0,2.688807034E0,-2.576877294E0,-1.818317539E1,1.856065320E1
6.861955000E0,3.255128582E0,-2.166385652E0,-1.632334683E1,1.678513451E1
6.871893000E0,3.218320067E0,-3.237867893E0,-1.494649595E1,1.562815132E1
6.881830000E0,3.159327508E0,-3.920980849E0,-1.275405320E1,1.371208643E1
6.891767000E0,3.194161126E0,-3.991961369E0,-1.006873695E1,1.129238171E1
6.901704750E0,2.847013979E0,-3.752903219E0,-7.650393464E0,8.984335887E0
6.911641750E0,1.996216473E0,-3.253521474E0,-5.866312074E0,6.998849873E0
6.921578750E0,1.507286626E0,-2.172817443E0,-3.706158239E0,4.552873543E0
6.931516750E0,9.350327866E-1,-1.795562398E0,2.650039995E-1,2.041704620E0
6.941453750E0,4.890035952E-1,-3.431875877E0,7.871978964E0,8.601450422E0
6.951390750E0,2.125284403E0,-6.012421714E0,1.933260467E1,2.035720148E1
6.961327750E0,4.951329244E0,-7.880986015E0,3.135208503E1,3.270441618E1
6.971265750E0,6.505113952E0,-8.059381056E0,3.829848134E1,3.967422089E1
6.981202750E0,5.095194138E0,-7.290911323E0,3.772768316E1,3.876204932E1
6.991139750E0,2.102056778E0,-6.675939188E0,3.225497699E1,3.300561085E1
7.001077750E0,-1.566765089E-1,-4.979259054E0,2.487182877E1,2.536583203E1
7.011014750E0,-4.029850449E0,3.697202132E-1,1.673300627E1,1.721539679E1
7.020951750E0,-9.416330944E0,5.567051577E0,9.823942101E0,1.470269329E1
7.030889750E0,-1.273072632E1,5.907781112E0,1.066617270E1,1.762783340E1
7.040826750E0,-1.359915830E1,4.331823177E0,1.683833684E1,2.207331842E1
7.050763750E0,-1.362545089E1,1.189413638E0,2.098281055E1,2.504687516E1
7.060701750E0,-1.546420608E1,-2.236595509E0,2.026725403E1,2.559112375E1
7.070638750E0,-1.509211033E1,-3.421798201E0,1.579849725E1,2.211499519E1
7.080575750E0,-1.150046981E1,-2.295635430E0,1.036770392E1,1.565311574E1
7.090512750E0,-7.957030224E0,-1.122935108E0,4.283493016E0,9.106241028E0
7.100450750E0,-5.041366425E0,-8.598629556E-1,-1.526537853E0,5.337139453E0
7.110387750E0,-2.049723613E0,-1.240489724E0,-5.921037335E0,6.387398905E0
7.120324750E0,-1.921839452E-1,-1.796602910E0,-8.818357834E0,9.001563840E0
7.130262750E0,1.051291733E0,-2.153448979E0,-1.060290466E1,1.087033321E1
7.140199750E0,1.663404214E0,-2.506752806E0,-1.190257581E1,1.227689025E1
7.150136750E0,2.161840903E0,-2.744960478E0,-1.295234982E1,1.341535427E1
7.160074750E0,2.955715764E0,-2.680186777E0,-1.399209236E1,1.454985585E1
7.170011750E0,3.628877344E0,-2.429279537E0,-1.497403165E1,1.559781311E1
7.179948750E0,3.783314296E0,-2.059140700E0,-1.591337749E1,1.648602774E1
7.189885750E0,3.677615640E0,-1.721340327E0,-1.684394315E1,1.732646214E1
7.199823750E0,3.460431924E0,-1.450585738E0,-1.772640494E1,1.811916720E1
7.209760750E0,2.914921787E0,-1.105478977E0,-1.840531111E1,1.866746716E1
7.219697750E0,2.326563985E0,-6.818202822E-1,-1.880421401E1,1.895985874E1
7.229635750E0,2.119962268E0,-4.316510708E-1,-1.892678920E1,1.905003706E1
7.239572750E0,2.084992556E0,-4.476136041E-1,-1.897532342E1,1.909477549E1
7.249509750E0,1.563306899E0,-4.310627678E-1,-1.886411289E1,1.893368688E1
7.259447750E0,1.243253411E0,-3.540585557E-1,-1.854072093E1,1.858573026E1
7.269384750E0,9.115188666E-1,-4.093874318E-1,-1.821717110E1,1.824455502E1
7.279321750E0,7.430404839E-1,-7.909974463E-1,-1.761381329E1,1.764721521E1
7.289259750E0,9.860102013E-1,-1.283232578E0,-1.624213602E1,1.632255754E1
7.299196750E0,1.351004000E0,-1.834337331E0,-1.378512431E1,1.397210283E1
7.309133750E0,1.360104168E0,-2.476713028E0,-1.037980064E1,1.075752072E1
7.319071750E0,1.803174449E0,-3.252517800E0,-6.006946966E0,7.064964401E0
7.329008750E0,2.677109680E0,-4.095555027E0,-5.637540346E-1,4.925272158E0
7.338945750E0,3.446980405E0,-5.301487999E0,5.246513062E0,8.216650670E0
7.348882750E0,4.663113552E0,-6.392791278E0,1.098869927E1,1.354119345E1
7.358820750E0,5.440559345E0,-7.644377264E0,1.619932271E1,1.872042323E1
7.368757750E0,6.875398824E0,-8.341786954E0,1.976235865E1,2.252570394E1
7.378694750E0,8.184284014E0,-7.601852219E0,2.022012547E1,2.310030597E1
7.388632750E0,7.077127179E0,-6.300659040E0,1.766462794E1,2.004552602E1
7.398569750E0,4.558171234E0,-3.919872801E0,1.458899484E1,1.577913490E1
7.408506750E0,1.513320953E0,-1.175256725E0,1.267112682E1,1.281517942E1
7.418444750E0,-2.204282480E0,1.296074672E0,1.100189761E1,1.129515037E1
7.428381750E0,-7.191365401E0,3.981179103E0,9.115107536E0,1.227398504E1
7.438318750E0,-1.014551323E1,5.891652737E0,8.501620009E0,1.448863532E1
7.448256750E0,-8.238085415E0,4.659317540E0,1.170346876E1,1.505146080E1
7.458193750E0,-7.020604484E0,-1.232064617E-1,1.868800060E1,1.996360272E1
7.468130750E0,-6.382566252E0,-4.421318906E0,2.616128249E1,2.728915379E1
7.478067750E0,-4.561468479E0,-6.715182776E0,3.003302803E1,3.111082524E1
7.488005750E0,-2.681082863E0,-8.040444848E0,2.785715512E1,2.911800217E1
7.497942750E0,-1.360651468E-1,-7.637211501E0,2.058460347E1,2.195612473E1
7.507879750E0,1.544021466E0,-6.373439918E0,1.241838911E1,1.404354395E1
7.517817750E0,1.865067081E0,-5.227864537E0,6.135499756E0,8.273656997E0
7.527754750E0,1.552858071E0,-4.215306296E0,1.629690338E0,4.778709654E0
7.537691750E0,1.206262901E0,-3.829974200E0,-1.900622830E0,4.442537529E0
7.547629750E0,7.604225019E-1,-3.037970009E0,-4.742273743E0,5.683015432E0
7.557566750E0,-1.613802284E-2,-2.483454283E0,-6.982535017E0,7.411045869E0
7.567503750E0,-9.370377968E-1,-2.122831643E0,-9.010085696E0,9.304090405E0
7.577441750E0,-1.788872160E0,-1.388908722E0,-1.102562210E1,1.125581955E1
7.587378750E0,-2.288933351E0,-5.551922126E-1,-1.304450896E1,1.325543920E1
7.597315750E0,-2.703356369E0,2.439078301E-2,-1.502154262E1,1.526287893E1
7.607252750E0,-3.079195218E0,4.289024775E-1,-1.677954426E1,1.706512543E1
7.617190750E0,-3.117624289E0,9.262344081E-1,-1.840166011E1,1.868685598E1
7.627127750E0,-2.988915378E0,1.662027780E0,-1.975892984E1,2.005271204E1
7.637064750E0,-3.009280353E0,2.215266767E0,-2.036452831E1,2.070452096E1
7.647002750E0,-2.778272942E0,2.220092327E0,-2.006869662E1,2.038136881E1
7.656939750E0,-2.071192835E0,2.034969334E0,-1.888124640E1,1.910320407E1
7.666876750E0,-1.114583676E0,1.628007802E0,-1.735119730E1,1.746301102E1
7.676814750E0,4.360210240E-2,1.203206562E0,-1.618250378E1,1.622723130E1
7.686751750E0,1.173091501E0,1.112706793E0,-1.526128431E1,1.534669537E1
7.696688750E0,1.983893028E0,1.229597385E0,-1.456046511E1,1.474635160E1
7.706626750E0,2.249425908E0,1.497029587E0,-1.405616264E1,1.431351538E1
7.716563750E0,2.108734883E0,1.861799657E0,-1.317429610E1,1.347127085E1
7.726500750E0,1.535167174E0,1.866553005E0,-1.140056896E1,1.165391483E1
7.736437750E0,8.561358672E-1,1.400928259E0,-8.340605232E0,8.500662576E0
7.746375750E0,1.258709648E-1,4.090839247E-1,-4.216206182E0,4.237875379E0
7.756312750E0,-3.565095623E-1,-3.353470270E-1,2.327010566E-1,5.419469331E-1
7.766249750E0,-6.379265499E-1,-1.072875195E0,4.899065076E0,5.055576138E0
7.776187750E0,9.362459376E-2,-2.689179210E0,1.003182465E1,1.038643135E1
7.786124750E0,2.559682679E0,-4.836521211E0,1.672290813E1,1.759544171E1
7.796061750E0,6.398620368E0,-6.696106235E0,2.428107989E1,2.598751666E1
7.805999750E0,9.687782668E0,-8.237228798E0,3.047591485E1,3.302251440E1
7.815936750E0,9.144759352E0,-9.322012432E0,3.180647216E1,3.438281854E1
7.825873750E0,6.028052491E0,-8.543398365E0,2.756714960E1,2.948346671E1
7.835811750E0,2.928731157E0,-5.759336094E0,2.035116391E1,2.135221981E1
7.845748750E0,7.043382020E-1,-2.480289477E0,1.274956020E1,1.300765980E1
7.855685750E0,-4.231084715E-1,-1.355187976E-1,7.407452763E0,7.420764284E0
7.865622750E0,-1.327119879E0,3.676523819E-1,5.658664582E0,5.823821795E0
7.875560750E0,-8.134180100E-1,-8.567292865E-1,6.466949176E0,6.573968784E0
7.885497750E0,1.100912155E0,-3.344030233E0,7.983771295E0,8.725545820E0
7.895435000E0,2.503827444E0,-5.285301152E0,8.869367774E0,1.062399383E1
7.905373000E0,2.823195931E0,-6.376712605E0,8.875740069E0,1.128767738E1
7.915310000E0,2.141802203E0,-6.635746597E0,8.194264627E0,1.075948058E1
7.925247000E0,6.571516103E-1,-6.047216740E0,6.067477927E0,8.591563707E0
7.935185000E0,-8.414871302E-1,-5.181897821E0,2.528757048E0,5.827072835E0
7.945122000E0,-2.142857333E0,-4.462422201E0,-1.198194475E0,5.093203260E0
7.955059000E0,-3.452556894E0,-3.980296758E0,-4.134946842E0,6.697812835E0
7.964997000E0,-4.522582156E0,-3.475605157E0,-5.898069472E0,8.204925597E0
7.974934000E0,-5.152804415E0,-2.987948833E0,-6.711887285E0,8.973776379E0
7.984871000E0,-5.519490910E0,-2.746195117E0,-7.159281144E0,9.447839648E0
7.994808000E0,-5.571991889E0,-2.571610122E0,-7.755966112E0,9.890160897E0
8.004746000E0,-5.392235616E0,-2.024628387E0,-8.592378151E0,1.034428767E1
8.014683000E0,-5.158406632E0,-1.627451439E0,-9.500941908E0,1.093277889E1
8.024620000E0,-4.380099836E0,-1.203272708E0,-1.051889187E1,1.145775833E1
8.034558000E0,-3.698297242E0,-3.445803653E-1,-1.149228604E1,1.207761469E1
8.044495000E0,-3.281648628E0,4.221002288E-1,-1.253381431E1,1.296317429E1
8.054432000E0,-2.945505064E0,9.094468327E-1,-1.376341009E1,1.410441601E1
8.064370000E0,-2.410128152E0,1.261569960E0,-1.508032468E1,1.532372242E1
8.074307000E0,-1.665283948E0,1.493742428E0,-1.627895945E1,1.643194930E1
8.084244000E0,-9.234504756E-1,1.602315575E0,-1.687262959E1,1.697367978E1
8.094181000E0,-2.394497667E-1,1.423860015E0,-1.682635707E1,1.688819131E1
8.104119000E0,3.422676453E-1,9.803806483E-1,-1.607334562E1,1.610685359E1
8.114056000E0,9.868804863E-1,4.620227149E-1,-1.483102279E1,1.487099980E1
8.123993000E0,1.771873281E0,-7.836803868E-3,-1.361302906E1,1.372786060E1
8.133931000E0,2.491489234E0,-3.188200547E-1,-1.242972803E1,1.268098197E1
8.143868000E0,3.443954471E0,-2.944630759E-1,-1.081053578E1,1.134967906E1
8.153805000E0,2.900929108E0,-2.816132348E-1,-9.234161525E0,9.683203745E0
8.163743000E0,5.844799291E-1,-5.216707465E-1,-7.390903389E0,7.432308528E0
8.173680000E0,-2.129004402E0,-4.767560173E-1,-3.975761658E0,4.535045403E0
8.183617000E0,-3.313027711E0,-1.005522287E-1,1.556013082E0,3.661617139E0
8.193555000E0,-1.063532367E0,-1.151326775E0,8.725281855E0,8.864942069E0
8.203492000E0,4.387329041E0,-3.568685229E0,1.731137776E1,1.821175363E1
8.213429000E0,9.459038422E0,-5.439791606E0,2.528811076E1,2.754184610E1
8.223366000E0,1.048432898E1,-6.091790065E0,2.882438750E1,3.127101494E1
8.233304000E0,7.872378913E0,-5.216080059E0,2.840157534E1,2.993044140E1
8.243241000E0,3.575525594E0,-3.604566667E0,2.483442062E1,2.534809128E1
8.253178000E0,-3.376160098E0,-8.151071975E-1,1.928148714E1,1.959179939E1
8.263116000E0,-8.762306424E0,4.085495769E0,1.341843138E1,1.653854862E1
8.273053000E0,-9.527201169E0,5.810751831E0,9.478291549E0,1.464139371E1
8.282990000E0,-6.833301795E0,3.403280362E0,9.643236240E0,1.229911931E1
8.292928000E0,-4.512400399E0,1.062802635E0,1.223194245E1,1.308096797E1
8.302865000E0,-4.106720870E0,-7.085879584E-1,1.336248172E1,1.399725583E1
8.312802000E0,-4.316958093E0,-1.843376396E0,1.217241546E1,1.304614356E1
8.322739000E0,-3.257709835E0,-2.429130287E0,1.031221151E1,1.108399988E1
8.332677000E0,-7.649988252E-1,-2.609526099E0,7.731237652E0,8.195540574E0
8.342614000E0,1.239169423E0,-2.622442891E0,4.497895796E0,5.351991608E0
8.352551000E0,1.847179279E0,-2.601241472E0,1.393589711E0,3.481468191E0
8.362489000E0,1.161470598E0,-2.555564777E0,-1.000627583E0,2.980131011E0
8.372426000E0,-2.398416398E-1,-2.167300010E0,-3.141897250E0,3.824425666E0
8.382363000E0,-1.284142405E0,-1.951244076E0,-5.439646595E0,5.919977216E0
8.392301000E0,-1.689025252E0,-2.005272787E0,-7.423012204E0,7.872422463E0
8.402238000E0,-1.528152854E0,-2.153633167E0,-8.647243745E0,9.041471747E0
8.412175000E0,-1.237289982E0,-2.594433266E0,-9.187472093E0,9.626609680E0
8.422113000E0,-9.407811112E-1,-3.011830031E0,-9.683146411E0,1.018427777E1
8.432050000E0,-6.109719456E-1,-3.104189726E0,-1.073210123E1,1.118871205E1
8.441987000E0,-2.407143185E-1,-3.065318898E0,-1.219305847E1,1.257476831E1
8.451924000E0,3.461598718E-2,-2.855187802E0,-1.368573100E1,1.398043378E1
8.461862000E0,1.904985949E-1,-2.264740058E0,-1.505616398E1,1.522673344E1
8.471799000E0,1.934011528E-1,-1.425563455E0,-1.645360876E1,1.651638206E1
8.481736000E0,-5.460588617E-2,-4.660846294E-1,-1.797303348E1,1.797915874E1
8.491674000E0,-2.768573654E-1,8.956823409E-2,-1.909443705E1,1.909665413E1
8.501611000E0,-3.321613178E-1,3.819041660E-1,-1.944547465E1,1.945206072E1
8.511548000E0,-1.797190701E-1,4.047226328E-1,-1.882729297E1,1.883250010E1
8.521486000E0,1.769325064E-1,-2.774796188E-2,-1.721759894E1,1.721853038E1
8.531423000E0,7.967218705E-1,-6.463289257E-1,-1.508803131E1,1.512286995E1
8.541360000E0,1.452350135E0,-1.056073586E0,-1.311514800E1,1.323751183E1
8.551298000E0,1.940703300E0,-1.111685138E0,-1.150082415E1,1.171627625E1
8.561235000E0,2.088640926E0,-1.182072897E0,-9.684349183E0,9.977291033E0
8.571172000E0,2.011221160E0,-1.455972193E0,-7.134624605E0,7.554318886E0
8.581109000E0,1.677643354E0,-1.831745261E0,-1.867680202E0,3.107733460E0
8.591047000E0,1.908737596E0,-2.238543070E0,7.181184229E0,7.760396975E0
8.600984000E0,3.416087518E0,-2.444670286E0,1.754173116E1,1.803769383E1
8.610921000E0,4.786181362E0,-2.641983993E0,2.569192649E1,2.626714104E1
8.620859000E0,4.928392371E0,-2.374322727E0,2.926751523E1,2.977438341E1
8.630796000E0,3.157625383E0,-9.797058796E-1,2.968589521E1,2.986942912E1
8.640733000E0,-1.945916824E0,1.381573390E0,2.813994752E1,2.824096287E1
8.650671000E0,-6.494515874E0,4.086846184E0,2.446467545E1,2.563983995E1
8.660608000E0,-9.297270523E0,5.537136637E0,2.319774286E1,2.559754666E1
8.670545000E0,-1.126362483E1,5.358463853E0,2.547779210E1,2.836723937E1
8.680482000E0,-1.236513852E1,4.561607935E0,2.674421013E1,2.981539356E1
8.690420000E0,-1.186941976E1,3.148791995E0,2.345758610E1,2.647746896E1
8.700357000E0,-7.318499072E0,1.533724373E0,1.750418736E1,1.903442445E1
8.710294000E0,-1.303833342E0,-6.588322462E-1,1.115131385E1,1.124659246E1
8.720232000E0,3.163120597E0,-2.987320550E0,5.471367155E0,6.990370128E0
8.730169000E0,5.239286488E0,-5.140199572E0,1.315169193E0,7.456637617E0
8.740106000E0,5.565678066E0,-6.478172906E0,-1.842839475E0,8.737250933E0
8.750044000E0,5.130087397E0,-6.719427270E0,-4.634882026E0,9.641090754E0
8.759981000E0,4.147338846E0,-6.432057086E0,-7.393376176E0,1.064113665E1
8.769918000E0,3.114678462E0,-5.843034893E0,-1.016607438E1,1.213224411E1
8.779856000E0,2.156234447E0,-4.985700347E0,-1.284574573E1,1.394703331E1
8.789793000E0,1.214734786E0,-4.005857862E0,-1.540922003E1,1.596767171E1
8.799730000E0,4.784003640E-1,-3.486288897E0,-1.717561594E1,1.753239459E1
8.809667000E0,5.027311765E-1,-3.403673294E0,-1.731551174E1,1.765402723E1
8.819605000E0,1.071547000E0,-3.171548773E0,-1.656566714E1,1.690054030E1
8.829542000E0,1.314911331E0,-2.575847891E0,-1.635660579E1,1.661031418E1
8.839479000E0,1.251031962E0,-1.822404480E0,-1.653774786E1,1.668482374E1
8.849417000E0,1.101710885E0,-9.664413247E-1,-1.674436975E1,1.680838166E1
8.859354000E0,9.505491773E-1,-3.415766871E-1,-1.729116978E1,1.732064579E1
8.869291000E0,3.897646511E-1,2.725619277E-2,-1.794170176E1,1.794595557E1
8.879229000E0,-5.333865201E-1,3.693091904E-1,-1.801294306E1,1.802462228E1
8.889166000E0,-9.957515895E-1,6.423121078E-1,-1.736709471E1,1.740747152E1
8.899103625E0,-9.686341768E-1,5.366084091E-1,-1.593057766E1,1.596901705E1
8.909040625E0,-5.631953332E-1,8.941752210E-2,-1.353639194E1,1.354839811E1
8.918978625E0,-1.058335800E-1,-4.404297515E-1,-1.103726508E1,1.104655600E1
8.928915625E0,2.564910382E-2,-7.855070570E-1,-9.109274354E0,9.143115359E0
8.938852625E0,-5.261763185E-2,-9.637500706E-1,-7.561345047E0,7.622697799E0
8.948790625E0,-5.508017211E-1,-1.026077004E0,-6.472875913E0,6.576803110E0
8.958727625E0,-1.171325642E0,-1.385001466E0,-3.584066037E0,4.016934425E0
8.968664625E0,-1.684956028E0,-1.162994821E0,-1.029608722E0,2.291664873E0
8.978602625E0,-2.125516684E0,-8.233226086E-1,2.844176325E0,3.644862173E0
8.988539625E0,-1.898249006E0,-8.050632159E-1,9.074091073E0,9.305407292E0
8.998476625E0,-5.721184401E-1,-7.245270297E-1,1.717591414E1,1.720070596E1
9.008413625E0,4.138925653E-1,-8.101434231E-2,2.288890228E1,2.289278747E1
9.018351625E0,-8.178615285E-1,2.893640846E-1,2.449573118E1,2.451108882E1
9.028288625E0,-2.666901610E0,7.748695099E-1,2.509530935E1,2.524851160E1
9.038225625E0,-3.715757320E0,1.268671403E0,2.653940088E1,2.682827200E1
9.048163625E0,-3.514487971E0,1.347303444E0,2.833128479E1,2.858021256E1
9.058100625E0,-3.344722543E0,1.608148026E-1,2.897135142E1,2.916422866E1
9.068037625E0,-2.394096110E0,-1.975412372E0,2.894096227E1,2.910692783E1
9.077975625E0,-6.518449697E-1,-3.499377597E0,2.815367678E1,2.837780932E1
9.087912625E0,-1.256904759E0,-4.372117510E0,2.470196949E1,2.511737482E1
9.097849625E0,-2.644138985E0,-4.319786392E0,1.953732505E1,2.018313889E1
9.107787625E0,-2.442452291E0,-4.213898871E0,1.387268286E1,1.470285165E1
9.117724625E0,-4.546163392E-1,-4.320642424E0,8.778313762E0,9.794560709E0
9.127661625E0,1.815191793E0,-4.609926694E0,4.278719350E0,6.546280214E0
9.137598625E0,2.459800249E0,-4.734156930E0,3.028021556E-1,5.343645595E0
9.147536625E0,1.476199320E0,-4.499579502E0,-3.513438689E0,5.896577952E0
9.157473625E0,-8.687297830E-2,-3.961685948E0,-7.570740353E0,8.545092859E0
9.167410625E0,-1.383408393E0,-3.266751092E0,-1.176114336E1,1.228454210E1
9.177348625E0,-1.846914692E0,-2.597961769E0,-1.527246652E1,1.560156188E1
9.187285625E0,-1.951072314E0,-2.337260296E0,-1.776594615E1,1.802493582E1
9.197222625E0,-2.000933276E0,-2.409498699E0,-1.917696115E1,1.943103849E1
9.207160625E0,-1.982544806E0,-2.423624841E0,-1.956856672E1,1.981749845E1
9.217097625E0,-1.893065011E0,-2.295303162E0,-2.026075660E1,2.047804605E1
9.227034625E0,-1.775387603E0,-2.057881502E0,-2.136864025E1,2.154079069E1
9.236971625E0,-1.729436236E0,-1.818634341E0,-2.213775493E1,2.227955506E1
9.246909625E0,-1.660610415E0,-1.385093999E0,-2.273088011E1,2.283350658E1
9.256846625E0,-1.693842773E0,-1.124330985E0,-2.321447759E1,2.330333009E1
9.266783625E0,-1.610561172E0,-1.004586805E0,-2.340043308E1,2.347729478E1
9.276721625E0,-1.508055827E0,-7.536164159E-1,-2.285420958E1,2.291630567E1
9.286658625E0,-1.853151332E0,-5.256380092E-1,-2.171044041E1,2.179572637E1
9.296595625E0,-2.012829290E0,-5.139763223E-1,-2.049629180E1,2.060130169E1
9.306533625E0,-1.824987049E0,-8.968196974E-1,-1.858482999E1,1.869574200E1
9.316470625E0,-8.612486726E-1,-1.390138245E0,-1.520208593E1,1.528978908E1
9.326407625E0,2.213821627E-2,-1.552620528E0,-1.131749172E1,1.142351694E1
9.336345625E0,2.497826008E-1,-1.303737448E0,-8.637196475E0,8.738608907E0
9.346282625E0,1.002782135E-1,-1.180633605E0,-6.448887711E0,6.556836443E0
9.356219625E0,1.642917033E-1,-1.670093137E0,-2.056265185E0,2.654134390E0
9.366156625E0,1.437201315E0,-3.086895124E0,6.645333692E0,7.466922325E0
9.376094625E0,4.300442925E0,-5.226772277E0,1.916276996E1,2.032300938E1
9.386031625E0,7.649745592E0,-7.265543763E0,3.441355851E1,3.599444045E1
9.395968625E0,9.107969255E0,-8.290332041E0,4.425431954E1,4.593614598E1
9.405906625E0,6.765745988E0,-7.524948469E0,4.555462336E1,4.666501771E1
9.415843625E0,2.625914383E0,-5.050401542E0,4.186611085E1,4.225131027E1
9.425780625E0,-1.275928090E0,-2.306043620E0,3.546473118E1,3.556252223E1
9.435718625E0,-4.552184855E0,-4.799689892E-1,3.068308638E1,3.102264571E1
9.445655625E0,-6.403979341E0,5.997183578E-1,2.897773892E1,2.968299120E1
9.455592625E0,-7.454874852E0,7.550660138E-1,2.781312325E1,2.880477580E1
9.465529625E0,-8.864727423E0,3.701476812E-1,2.487986518E1,2.641454321E1
9.475467625E0,-9.342909796E0,1.263817191E-2,2.042562469E1,2.246099435E1
9.485404625E0,-8.572927973E0,-5.653660389E-1,1.568649383E1,1.788521237E1
9.495341625E0,-7.074235146E0,-1.190644915E0,1.114053860E1,1.325043541E1
9.505279625E0,-5.722615580E0,-2.029959001E0,7.346203179E0,9.530779809E0
9.515216625E0,-5.226244274E0,-3.042146090E0,3.972238126E0,7.235119748E0
9.525153625E0,-5.226170014E0,-3.809520054E0,-3.130833149E-2,6.467323733E0
9.535091625E0,-5.465530465E0,-4.442320350E0,-3.933103881E0,8.066941149E0
9.545028625E0,-5.811893792E0,-5.515652213E0,-6.913507467E0,1.058286891E1
9.554965625E0,-6.002614764E0,-6.515603272E0,-9.528182917E0,1.301040890E1
9.564903625E0,-5.464280915E0,-7.228087669E0,-1.241774942E1,1.537218651E1
9.574840625E0,-4.570772569E0,-8.120278053E0,-1.564259995E1,1.820774041E1
9.584777625E0,-3.582758892E0,-8.966098847E0,-1.892332998E1,2.124428176E1
9.594714625E0,-2.768283851E0,-9.327055070E0,-2.208316298E1,2.413137872E1
9.604652625E0,-2.289205539E0,-9.581911812E0,-2.463940896E1,2.653589964E1
9.614589625E0,-2.114336808E0,-9.706561001E0,-2.611471760E1,2.794040483E1
9.624526625E0,-2.302083593E0,-9.209929494E0,-2.696015716E1,2.858273017E1
9.634464625E0,-2.103077555E0,-8.108163791E0,-2.758287861E1,2.882673148E1
9.644401625E0,-1.701188483E0,-7.169288068E0,-2.764641445E1,2.861148311E1
9.654338625E0,-1.334482400E0,-6.120602220E0,-2.764712781E1,2.834795039E1
9.664276625E0,-1.203393526E0,-5.211693478E0,-2.756826759E1,2.808236604E1
9.674213625E0,-1.332732182E0,-4.998222159E0,-2.700087015E1,2.749191497E1
9.684150625E0,-1.725982432E0,-4.848320892E0,-2.580510052E1,2.631327504E1
9.694087625E0,-2.170395526E0,-4.538357944E0,-2.376529700E1,2.429190505E1
9.704025625E0,-2.259913328E0,-4.310306593E0,-2.072880984E1,2.129247540E1
9.713962625E0,-2.197813559E0,-4.303616794E0,-1.698347760E1,1.765757665E1
9.723899625E0,-2.027254225E0,-4.084671312E0,-1.260201390E1,1.340168100E1
9.733837625E0,-1.783971755E0,-3.404792744E0,-8.582013377E0,9.403516494E0
9.743774625E0,-1.636446504E0,-2.311859992E0,-5.250099744E0,5.965417094E0
9.753711625E0,-1.940511804E0,-1.435910688E0,-1.939258307E-1,2.421782978E0
9.763649625E0,-1.655809266E0,-1.349609878E0,8.819728421E0,9.074731983E0
9.773586625E0,3.688611110E-1,-3.172655359E0,2.228910660E1,2.251679536E1
9.783523625E0,2.977099032E0,-6.493159320E0,3.952066167E1,4.016101263E1
9.793460625E0,5.407650046E0,-7.697203349E0,5.414555374E1,5.495662479E1
9.803398625E0,3.581218443E0,-6.981539236E0,5.991142293E1,6.042305531E1
9.813335625E0,-1.533941305E0,-3.954094800E0,5.517936486E1,5.534211911E1
9.823272625E0,-5.078091032E0,4.913746411E-1,4.263253113E1,4.293671120E1
9.833210625E0,-6.959269531E0,3.850851391E0,3.113262032E1,3.213254638E1
9.843147625E0,-7.249429421E0,5.894780998E0,2.486810994E1,2.656549570E1
9.853084625E0,-5.750157720E0,5.760895547E0,2.211496248E1,2.356530918E1
9.863022625E0,-4.352750070E0,3.321030503E0,1.931348662E1,2.007452221E1
9.872959625E0,-3.281573784E0,-4.534082679E-2,1.527305125E1,1.562167970E1
9.882896625E0,-1.399157283E0,-3.144580538E0,9.219761002E0,9.841240816E0
9.892834625E0,9.696249144E-1,-5.539077913E0,1.460490628E0,5.809870005E0
9.902771000E0,2.880848600E0,-7.302154350E0,-5.653550023E0,9.673850043E0
9.912708000E0,3.892546716E0,-8.002234463E0,-1.135241246E1,1.442445649E1
9.922645000E0,3.552915580E0,-7.095009134E0,-1.613206336E1,1.797792624E1
9.932583000E0,2.622546971E0,-5.698348466E0,-1.833670924E1,1.937998539E1
9.942520000E0,1.469292150E0,-5.488215322E0,-1.503786454E1,1.607534437E1
9.952457000E0,-3.776892006E-2,-5.250364623E0,-1.180624410E1,1.292111276E1
9.962395000E0,-1.401867321E0,-4.277606040E0,-1.397032902E1,1.467764417E1
9.972332000E0,-2.288927066E0,-3.430616972E0,-1.871763195E1,1.916658722E1
9.982269000E0,-2.384471447E0,-2.694334407E0,-2.273948487E1,2.302236552E1
9.992206000E0,-1.948685773E0,-1.908348317E0,-2.469891023E1,2.484905101E1
1.000214400E1,-1.772429205E0,-1.474079996E0,-2.468096161E1,2.478839009E1
1.001208100E1,-1.686381141E0,-1.372090083E0,-2.322326946E1,2.332480990E1
1.002201800E1,-1.601615663E0,-1.452613844E0,-2.058866144E1,2.070188976E1
1.003195600E1,-1.591252497E0,-1.775194499E0,-1.768682397E1,1.784676839E1
1.004189300E1,-1.576250880E0,-2.068462331E0,-1.595190363E1,1.616249772E1
1.005183000E1,-1.845221485E0,-1.967788773E0,-1.545390095E1,1.568757755E1
1.006176800E1,-2.194566454E0,-1.767280731E0,-1.577058849E1,1.602032660E1
1.007170500E1,-2.626510507E0,-1.350276022E0,-1.648112225E1,1.674363143E1
1.008164200E1,-2.214013124E0,-9.597383691E-1,-1.647906052E1,1.665480074E1
1.009158000E1,-1.150182110E0,-1.202296150E0,-1.465304290E1,1.474720656E1
1.010151700E1,1.531421594E-1,-1.776950418E0,-1.128998875E1,1.142999787E1
1.011145400E1,1.208610412E0,-2.602421440E0,-7.005169004E0,7.570054772E0
1.012139100E1,1.725691241E0,-3.294822405E0,-1.994233244E0,4.220288043E0
1.013132900E1,1.728531672E0,-3.536598633E0,2.968059529E0,4.929982657E0
1.014126600E1,1.426339965E0,-3.131462309E0,7.435514136E0,8.193129583E0
1.015120300E1,1.343520295E0,-2.265665088E0,1.204338846E1,1.232807733E1
1.016114100E1,1.899583341E0,-1.330757870E0,1.792624172E1,1.807565975E1
1.017107800E1,2.646901209E0,-1.106057266E0,2.455300816E1,2.472002546E1
1.018101500E1,4.091521033E0,-1.203756785E0,3.029701812E1,3.059573306E1
1.019095300E1,4.956480056E0,-1.068438473E0,3.409582549E1,3.447076401E1
1.020089000E1,3.963301826E0,-1.420903078E0,3.595696149E1,3.620262154E1
1.021082700E1,1.987271549E0,-1.347265583E0,3.500406648E1,3.508630848E1
1.022076400E1,-6.203527433E-1,-2.190615929E0,3.150333847E1,3.158550254E1
1.023070200E1,-2.821375108E0,-4.002899755E0,2.920578033E1,2.961352678E1
1.024063900E1,-4.088127309E0,-5.304775304E0,2.908929210E1,2.985029884E1
1.025057600E1,-5.788475693E0,-5.901662001E0,2.713089819E1,2.836232893E1
1.026051400E1,-8.235655897E0,-5.903876926E0,2.160683242E1,2.386497430E1
1.027045100E1,-8.696299546E0,-5.121025967E0,1.467844087E1,1.781311761E1
1.028038800E1,-6.839351324E0,-4.026713710E0,8.196392428E0,1.140929440E1
1.029032600E1,-4.313700610E0,-2.740826496E0,2.185848255E0,5.558603730E0
1.030026300E1,-2.320953143E0,-1.393574362E0,-3.696300418E0,4.581649241E0
1.031020000E1,-1.707479649E0,-4.679846091E-1,-8.613529285E0,8.793598983E0
1.032013700E1,-2.176253851E0,-1.882633140E-1,-1.153743707E1,1.174240087E1
1.033007500E1,-2.737205900E0,-3.112249601E-1,-1.283724037E1,1.312950484E1
1.034001200E1,-3.316786301E0,-5.910546845E-1,-1.367834012E1,1.408713617E1
1.034994900E1,-3.895950673E0,-7.768095430E-1,-1.493706322E1,1.545631658E1
1.035988700E1,-4.245015706E0,-1.115783744E0,-1.678261522E1,1.734708348E1
1.036982400E1,-4.011026800E0,-1.695036628E0,-1.860191088E1,1.910477881E1
1.037976100E1,-3.419558718E0,-1.947214321E0,-2.014525772E1,2.052599411E1
1.038969900E1,-3.021589619E0,-2.148172160E0,-2.118595920E1,2.150789424E1
1.039963600E1,-2.732795345E0,-2.103640788E0,-2.187810581E1,2.214825024E1
1.040957300E1,-2.448330789E0,-2.044235124E0,-2.243829012E1,2.266384972E1
1.041951100E1,-2.114837037E0,-2.158702264E0,-2.260125669E1,2.280239758E1
1.042944800E1,-1.687970999E0,-2.259919760E0,-2.248313124E1,2.265938379E1
1.043938500E1,-1.388249156E0,-2.406988343E0,-2.197802537E1,2.215297785E1
1.044932200E1,-1.198257040E0,-2.412878243E0,-2.094569710E1,2.111823924E1
1.045926000E1,-1.193706298E0,-2.357418426E0,-1.978115394E1,1.995686367E1
1.046919700E1,-9.576183879E-1,-2.342083519E0,-1.876464941E1,1.893447797E1
1.047913400E1,-1.763097779E-1,-2.371284952E0,-1.749784663E1,1.765867250E1
1.048907200E1,1.072659505E0,-2.017325507E0,-1.585777983E1,1.602152869E1
1.049900900E1,2.195284492E0,-1.458125137E0,-1.341409509E1,1.367052852E1
1.050894600E1,2.347795956E0,-1.195351047E0,-8.872979599E0,9.255850957E0
1.051888400E1,1.897819967E0,-9.490805760E-1,-1.949800252E0,2.881700122E0
1.052882100E1,3.944993609E-1,-4.300315748E-1,5.969293236E0,5.997751132E0
1.053875800E1,-1.281900144E0,-3.342408435E-1,1.316202279E1,1.322852331E1
1.054869500E1,-1.632958493E0,-1.214265401E0,2.073702635E1,2.083663254E1
1.055863300E1,-1.540936475E-1,-3.891072341E0,3.131691052E1,3.155809046E1
1.056857000E1,2.754150839E0,-6.300342706E0,4.516280378E1,4.568324102E1
1.057850700E1,5.546800915E0,-7.772386848E0,5.373777828E1,5.457953657E1
1.058844500E1,3.597230458E0,-6.567113149E0,5.346308076E1,5.398488721E1
1.059838200E1,1.465970054E-1,-5.156092304E0,4.587634184E1,4.616541475E1
1.060831900E1,-2.056604032E0,-5.382233369E0,3.838046865E1,3.881054535E1
1.061825600E1,-3.110566407E0,-5.841017019E0,3.434421521E1,3.497596634E1
1.062819400E1,-3.979841260E0,-6.891014398E0,3.112091653E1,3.212221446E1
1.063813100E1,-4.695697162E0,-7.806854430E0,2.671232175E1,2.822312317E1
1.064806800E1,-5.490469424E0,-8.524861522E0,2.085891975E1,2.319295263E1
1.065800600E1,-5.938597108E0,-8.666380513E0,1.407869547E1,1.756652364E1
1.066794300E1,-5.902300517E0,-8.756652752E0,7.155133129E0,1.275586331E1
1.067788000E1,-5.589810110E0,-8.751285008E0,4.004155737E-1,1.039188621E1
1.068781800E1,-5.980467265E0,-8.665910397E0,-5.501899561E0,1.188002064E1
1.069775500E1,-6.551316311E0,-8.615613817E0,-1.093515983E1,1.538591133E1
1.070769200E1,-7.418768295E0,-8.389427143E0,-1.779978750E1,2.102981326E1
1.071763000E1,-7.725021477E0,-7.232560204E0,-2.507493999E1,2.721651152E1
1.072756700E1,-7.532770289E0,-6.403792815E0,-3.069981877E1,3.225259778E1
1.073750400E1,-6.321605521E0,-5.888599906E0,-3.362394349E1,3.471610406E1
1.074744100E1,-5.115645944E0,-5.575486186E0,-3.422011858E1,3.504671733E1
1.075737900E1,-4.078123015E0,-5.800934941E0,-3.358401637E1,3.432445322E1
1.076731600E1,-3.070624662E0,-6.305107602E0,-3.232970909E1,3.308161434E1
1.077725300E1,-1.829465139E0,-6.380700406E0,-3.151345649E1,3.220494093E1
1.078719100E1,-7.886972248E-1,-5.918104956E0,-3.095319500E1,3.152374169E1
1.079712800E1,-4.038456966E-1,-5.242746871E0,-3.034554767E1,3.079775559E1
1.080706500E1,-5.151436459E-1,-4.679623166E0,-3.080209827E1,3.115980590E1
1.081700300E1,-1.366436118E0,-4.615671291E0,-3.057693369E1,3.095352069E1
1.082694000E1,-2.705902831E0,-4.559466392E0,-2.722806489E1,2.773946938E1
1.083687700E1,-4.135450872E0,-4.595738718E0,-2.166348025E1,2.252840751E1
1.084681400E1,-4.525741991E0,-4.662981990E0,-1.582442614E1,1.710667134E1
1.085675200E1,-3.822925089E0,-4.872210569E0,-1.052026129E1,1.220774711E1
1.086668900E1,-2.739441291E0,-5.186827608E0,-6.042520841E0,8.421388089E0
1.087662600E1,-1.754263952E0,-5.759273529E0,-2.197904044E0,6.409169664E0
1.088656400E1,-2.612689260E-1,-5.753957241E0,1.804999804E0,6.036083968E0
1.089650092E1,8.583870453E-1,-5.681696180E0,6.394681098E0,8.597118480E0
1.090643792E1,2.229341015E0,-5.170507445E0,1.293485846E1,1.410725601E1
1.091637592E1,2.654864825E0,-4.543426018E0,2.120982519E1,2.185286507E1
1.092631292E1,2.131868514E0,-4.999118537E0,2.915965048E1,2.966178122E1
1.093624992E1,3.125134160E0,-4.908798936E0,3.679539842E1,3.725270615E1
1.094618692E1,5.027046009E0,-4.254232380E0,4.146395807E1,4.198368139E1
1.095612492E1,6.091777786E0,-4.003289472E0,4.083762772E1,4.148310404E1
1.096606192E1,6.325280496E0,-3.810410585E0,3.716331458E1,3.788984499E1
1.097599892E1,5.707359610E0,-3.855011685E0,3.321257550E1,3.391917216E1
1.098593692E1,3.779976705E0,-4.442568857E0,2.933040087E1,2.990479990E1
1.099587392E1,1.934282619E0,-5.208534812E0,2.668667587E1,2.725892428E1
1.100581092E1,6.479855150E-1,-6.013810428E0,2.533841786E1,2.605035932E1
1.101574892E1,-1.326996064E0,-6.257296089E0,2.318569292E1,2.405184045E1
1.102568592E1,-4.153394222E0,-5.711256194E0,1.860685996E1,1.990186847E1
1.103562292E1,-5.033977298E0,-4.575863155E0,1.411923187E1,1.567265644E1
1.104555992E1,-4.623524686E0,-3.730181817E0,1.041236378E1,1.198785037E1
1.105549792E1,-4.238924369E0,-3.245149139E0,6.007862055E0,8.037031742E0
1.106543492E1,-4.996750415E0,-2.925284808E0,1.539507562E-1,5.792107281E0
1.107537192E1,-6.182212577E0,-2.414075461E0,-6.771394399E0,9.481523864E0
1.108530992E1,-6.831118444E0,-1.678830339E0,-1.326085009E1,1.501108909E1
1.109524692E1,-6.665610082E0,-1.226895386E0,-1.798918115E1,1.922358625E1
1.110518392E1,-5.939161364E0,-1.385660009E0,-2.097389940E1,2.184257648E1
1.111512192E1,-5.202906867E0,-1.969023705E0,-2.272777875E1,2.339870127E1
1.112505892E1,-4.496061232E0,-2.436418988E0,-2.420091690E1,2.473530034E1
1.113499592E1,-3.624971403E0,-2.822909417E0,-2.630749329E1,2.670568176E1
1.114493292E1,-2.781116736E0,-3.491532680E0,-2.812039677E1,2.847248014E1
1.115487092E1,-1.574930579E0,-3.770163031E0,-2.909785710E1,2.938332560E1
1.116480792E1,-7.211673658E-1,-3.705458327E0,-3.039406085E1,3.062759277E1
1.117474492E1,-4.802445392E-1,-3.595871565E0,-3.150462018E1,3.171280530E1
1.118468292E1,-1.090665056E-1,-3.403674172E0,-3.182917339E1,3.201082898E1
1.119461992E1,-1.739356622E-2,-3.536449236E0,-3.054205856E1,3.074612360E1
1.120455692E1,-3.890304601E-1,-3.780836246E0,-2.739395741E1,2.765637304E1
1.121449492E1,-7.807842609E-1,-3.700226823E0,-2.344448366E1,2.374752865E1
1.122443192E1,-1.470437473E0,-3.511821349E0,-1.991656610E1,2.027719608E1
1.123436892E1,-1.954418676E0,-3.387387045E0,-1.698102294E1,1.742553538E1
1.124430592E1,-2.249059580E0,-3.024998546E0,-1.389922220E1,1.440129379E1
1.125424392E1,-2.535744470E0,-3.033819655E0,-9.662147890E0,1.043988331E1
1.126418092E1,-2.350749677E0,-3.126981003E0,-3.079023895E0,4.978395563E0
1.127411792E1,-2.321142008E0,-4.390984136E0,6.422350708E0,8.118807210E0
1.128405592E1,-1.306065955E0,-6.725696070E0,1.850012255E1,1.972803412E1
1.129399292E1,-1.119438839E-1,-8.689936606E0,3.135892862E1,3.254089632E1
1.130392992E1,1.113553031E0,-9.581137640E0,4.287857729E1,4.395009203E1
1.131386792E1,2.107284481E0,-9.675788859E0,5.009150137E1,5.106094445E1
1.132380492E1,1.994898803E0,-9.598662331E0,5.108492928E1,5.201715043E1
1.133374192E1,8.686602377E-1,-9.415310605E0,4.837479628E1,4.929019740E1
1.134367992E1,-6.187377423E-2,-9.054453784E0,4.423273630E1,4.514999360E1
1.135361692E1,-5.030928998E-1,-8.338387967E0,4.031691211E1,4.117323425E1
1.136355392E1,-1.582597448E0,-7.051832124E0,3.561346330E1,3.633939624E1
1.137349092E1,-4.425657248E0,-5.427066311E0,2.841645066E1,2.926660484E1
1.138342892E1,-6.891014982E0,-3.514930898E0,1.946713273E1,2.094779424E1
1.139336592E1,-8.266880028E0,-1.677267670E0,1.172755461E1,1.444610914E1
1.140330292E1,-8.040669381E0,-5.597420042E-1,6.076642268E0,1.009411990E1
1.141324092E1,-7.089396392E0,-4.807238282E-1,2.031383529E0,7.390342051E0
1.142317792E1,-6.240247947E0,-1.430764115E0,-2.180866427E0,6.763428034E0
1.143311492E1,-5.129447712E0,-2.406894057E0,-7.356973166E0,9.285980131E0
1.144305192E1,-4.038058771E0,-2.929319679E0,-1.203702552E1,1.302984327E1
1.145298992E1,-3.157556971E0,-2.785433443E0,-1.540768222E1,1.597264777E1
1.146292692E1,-2.675867731E0,-2.699507731E0,-1.803721252E1,1.843335687E1
1.147286392E1,-2.646186095E0,-3.061349224E0,-2.049755948E1,2.089315928E1
1.148280192E1,-2.408034849E0,-3.506725500E0,-2.299508070E1,2.338524090E1
1.149273892E1,-1.987264386E0,-3.730027742E0,-2.547015797E1,2.581842896E1
1.150267592E1,-1.427087240E0,-3.514541473E0,-2.769056561E1,2.794916821E1
1.151261392E1,-3.209539595E-1,-3.335121415E0,-2.830687150E1,2.850447369E1
1.152255092E1,6.355199821E-1,-3.308519508E0,-2.776963634E1,2.797325311E1
1.153248792E1,1.318786865E0,-3.208433302E0,-2.692048263E1,2.714305856E1
1.154242492E1,1.453123575E0,-3.041247373E0,-2.600876372E1,2.622625676E1
1.155236292E1,6.483418297E-1,-3.053458698E0,-2.520327234E1,2.539584402E1
1.156229992E1,-3.597250193E-1,-2.872541168E0,-2.435609499E1,2.452754081E1
1.157223692E1,-7.669073564E-1,-2.736283794E0,-2.355459141E1,2.372539088E1
1.158217492E1,-6.797335571E-1,-2.908078206E0,-2.211274054E1,2.231349929E1
1.159211192E1,-3.369074296E-1,-2.871310037E0,-1.960264196E1,1.981467889E1
1.160204892E1,-6.845519552E-1,-3.047374378E0,-1.662657174E1,1.691738720E1
1.161198692E1,-1.204986893E0,-3.231633007E0,-1.253997377E1,1.300562907E1
1.162192392E1,-1.278148863E0,-3.142512670E0,-7.453746924E0,8.189468457E0
1.163186092E1,-1.142148986E0,-3.346030858E0,-1.877379563E0,4.003121386E0
1.164179792E1,-4.677291588E-1,-2.951264864E0,3.538755378E0,4.631579049E0
1.165173592E1,5.065338766E-1,-2.461388353E0,8.202443712E0,8.578758187E0
1.166167292E1,6.481665594E-1,-3.231171370E0,1.214636026E1,1.258549387E1
1.167160992E1,-4.279539129E-1,-5.398407937E0,1.815563501E1,1.894605593E1
1.168154792E1,-1.581345559E0,-7.680879677E0,3.005583451E1,3.106203075E1
1.169148492E1,-1.953453300E0,-8.598144675E0,4.373041370E1,4.461046014E1
1.170142192E1,-3.112389277E0,-9.013661853E0,5.262181612E1,5.347886123E1
1.171135992E1,-4.791672482E0,-9.087864774E0,5.395825573E1,5.492761394E1
1.172129692E1,-5.205933385E0,-8.541423175E0,4.928383717E1,5.028870906E1
1.173123392E1,-5.546889793E0,-7.459374869E0,4.155908525E1,4.258600506E1
1.174117192E1,-6.196256420E0,-6.179033446E0,3.364926194E1,3.476847533E1
1.175110892E1,-6.697912440E0,-4.773513662E0,2.631810949E1,2.757338120E1
1.176104592E1,-7.027441049E0,-3.764718980E0,1.973521354E1,2.128465856E1
1.177098292E1,-6.830317376E0,-3.152633323E0,1.384149147E1,1.575370491E1
1.178092092E1,-6.441672832E0,-3.095560405E0,7.913280771E0,1.066291028E1
1.179085792E1,-6.294841645E0,-3.119843015E0,1.583935291E0,7.201895777E0
1.180079492E1,-6.442756321E0,-3.413970534E0,-4.686867866E0,8.667816000E0
1.181073292E1,-6.740972505E0,-3.623704312E0,-1.067503708E1,1.313500514E1
1.182066992E1,-7.139498844E0,-3.538901559E0,-1.531061142E1,1.726010110E1
1.183060692E1,-7.317222040E0,-3.496294068E0,-1.829928472E1,2.001573461E1
1.184054492E1,-7.245767310E0,-3.528308743E0,-2.048134866E1,2.200990117E1
1.185048192E1,-6.784486315E0,-3.233143635E0,-2.273037257E1,2.394059961E1
1.186041892E1,-6.141808317E0,-2.576137036E0,-2.507742155E1,2.594677943E1
1.187035592E1,-5.692428160E0,-2.029161879E0,-2.673481248E1,2.740933116E1
1.188029392E1,-5.171202679E0,-1.746003883E0,-2.857055753E1,2.908722442E1
1.189023092E1,-4.234360325E0,-1.675850451E0,-3.089501754E1,3.122883909E1
1.190016767E1,-3.010060371E0,-1.649849491E0,-3.299065963E1,3.316875171E1
1.191010567E1,-1.719728104E0,-2.045968677E0,-3.389684006E1,3.400204728E1
1.192004267E1,-4.221755482E-1,-2.660579016E0,-3.284672691E1,3.295700808E1
1.192997967E1,8.882255329E-1,-3.618892930E0,-3.011516036E1,3.034482187E1
1.193991667E1,1.857486166E0,-4.165384523E0,-2.630822302E1,2.670062324E1
1.194985467E1,2.386612551E0,-4.225055358E0,-2.306239853E1,2.356737656E1
1.195979167E1,1.744285240E0,-3.943605188E0,-2.056165900E1,2.100895937E1
1.196972867E1,1.017388407E0,-2.869385426E0,-1.749205087E1,1.775500762E1
1.197966667E1,1.210266051E0,-1.986867214E0,-1.248662378E1,1.270150222E1
1.198960367E1,1.368101698E0,-2.282524949E0,-3.910406744E0,4.730000349E0
1.199954067E1,8.184566288E-1,-4.495903065E0,8.580581394E0,9.721594143E0
1.200947867E1,-6.197652443E-1,-8.056796002E0,2.243816382E1,2.384884203E1
1.201941567E1,-3.708898244E0,-1.125124276E1,3.594768079E1,3.784946689E1
1.202935267E1,-6.676908656E0,-1.221629881E1,4.779960334E1,4.978575243E1
1.203928967E1,-8.526018686E0,-1.161059510E1,5.497699974E1,5.683281986E1
1.204922767E1,-8.824680428E0,-1.011770855E1,5.509884636E1,5.671089738E1
1.205916467E1,-8.151227950E0,-8.180809599E0,5.000055612E1,5.131689561E1
1.206910167E1,-6.853763541E0,-6.010862846E0,4.240257651E1,4.337145423E1
1.207903967E1,-5.746927718E0,-4.006329147E0,3.377028059E1,3.448926938E1
1.208897667E1,-5.481479915E0,-2.672523416E0,2.498721070E1,2.572060851E1
1.209891367E1,-5.260257527E0,-1.662508713E0,1.740435316E1,1.825775872E1
1.210885167E1,-5.296908460E0,-1.031921442E0,1.104783450E1,1.229539541E1
1.211878867E1,-5.824984539E0,-8.387747531E-1,5.795416923E0,8.259591108E0
1.212872567E1,-6.530357552E0,-1.002291920E0,8.137663579E-1,6.656754053E0
1.213866267E1,-7.112963594E0,-1.265459528E0,-4.628226725E0,8.579983772E0
1.214860067E1,-7.179126593E0,-1.714202777E0,-1.019893106E1,1.258954108E1
1.215853767E1,-6.795881369E0,-2.533265251E0,-1.495817284E1,1.662372915E1
1.216847467E1,-6.466080864E0,-3.960329102E0,-1.895138960E1,2.041199589E1
1.217841267E1,-5.841588292E0,-5.661637892E0,-2.225296613E1,2.369330705E1
1.218834967E1,-4.780948396E0,-7.082287931E0,-2.474959389E1,2.618317528E1
1.219828667E1,-3.859420193E0,-8.372950274E0,-2.767200889E1,2.916747326E1
1.220822467E1,-3.269819711E0,-9.556017417E0,-3.106258939E1,3.266333800E1
1.221816167E1,-2.690671712E0,-1.027552724E1,-3.372469570E1,3.535790257E1
1.222809867E1,-1.902638657E0,-1.072517696E1,-3.486966004E1,3.653139261E1
1.223803567E1,-7.382180659E-1,-1.085138677E1,-3.460777261E1,3.627665207E1
1.224797367E1,1.914382790E-1,-1.057053798E1,-3.357989525E1,3.520486169E1
1.225791067E1,5.601558774E-1,-1.016216610E1,-3.185995781E1,3.344608058E1
1.226784767E1,8.818407389E-1,-9.685509270E0,-2.985289402E1,3.139716571E1
1.227778567E1,2.002254454E0,-8.939664170E0,-2.779815906E1,2.926882753E1
1.228772267E1,3.141050574E0,-7.935124215E0,-2.559239285E1,2.697782361E1
1.229765967E1,2.547985616E0,-7.142599037E0,-2.147608166E1,2.277566762E1
1.230759767E1,3.992474097E-1,-6.560283601E0,-1.421146585E1,1.565766525E1
1.231753467E1,-2.378820259E0,-6.722107633E0,-4.605433694E0,8.488553255E0
1.232747167E1,-4.284293793E0,-7.958999566E0,8.128030291E0,1.215589255E1
1.233740867E1,-3.872787220E0,-9.213656509E0,2.305202790E1,2.512540423E1
1.234734667E1,-2.362003228E0,-8.857464012E0,3.527151111E1,3.644328778E1
1.235728367E1,-1.410329120E0,-8.152985623E0,4.345420994E1,4.423492472E1
1.236722067E1,-4.502982435E-1,-7.806598322E0,4.941717708E1,5.003202111E1
1.237715867E1,6.996871074E-1,-7.708606004E0,5.421963095E1,5.476933949E1
1.238709567E1,1.303668889E0,-7.320438593E0,5.551903663E1,5.601474629E1
1.239703267E1,7.257746062E-1,-6.204289910E0,5.147677693E1,5.185439735E1
1.240697067E1,-3.913404027E-1,-4.916203850E0,4.341748943E1,4.369668861E1
1.241690767E1,-1.122999866E0,-3.914937167E0,3.466901167E1,3.490742374E1
1.242684467E1,-1.680269631E0,-3.248004626E0,2.720371474E1,2.744840498E1
1.243678167E1,-2.563115287E0,-2.701493446E0,2.195134569E1,2.226497708E1
1.244671967E1,-3.825545518E0,-2.633601133E0,1.846629524E1,1.904139473E1
1.245665667E1,-5.327046763E0,-3.072107516E0,1.439310610E1,1.565173393E1
1.246659367E1,-6.597699934E0,-3.725319272E0,8.860109877E0,1.165800991E1
1.247653167E1,-6.949382474E0,-4.771026841E0,2.407163029E0,8.766472936E0
1.248646867E1,-6.329710931E0,-5.814747818E0,-4.740475724E0,9.815734448E0
1.249640567E1,-5.423828123E0,-6.452589583E0,-1.200828177E1,1.467149123E1
1.250634367E1,-5.044007027E0,-6.898310553E0,-1.814047668E1,2.005257065E1
1.251628067E1,-4.957744224E0,-7.560795994E0,-2.204046194E1,2.382282154E1
1.252621767E1,-4.908269763E0,-8.186913507E0,-2.404414837E1,2.586962960E1
1.253615467E1,-4.832398632E0,-8.341111016E0,-2.532773383E1,2.710019023E1
1.254609267E1,-4.594252648E0,-8.348684914E0,-2.720289379E1,2.882369039E1
1.255602967E1,-4.315342215E0,-8.286268226E0,-2.962490173E1,3.106314894E1
1.256596667E1,-3.626613886E0,-7.678351926E0,-3.194896179E1,3.305821496E1
1.257590467E1,-2.503998767E0,-6.962118294E0,-3.373527682E1,3.453708156E1
1.258584167E1,-1.062896482E0,-6.368631753E0,-3.379463775E1,3.440591170E1
1.259577867E1,-1.044201618E-1,-5.661623858E0,-3.208773025E1,3.258354372E1
1.260571667E1,3.609038910E-1,-5.076184255E0,-2.938910691E1,2.982645643E1
1.261565367E1,5.934953123E-1,-4.539356064E0,-2.661026445E1,2.700118820E1
1.262559067E1,3.746074256E-1,-3.976827605E0,-2.353336602E1,2.386995611E1
1.263552767E1,-6.814393361E-1,-3.342467565E0,-2.115945728E1,2.143266388E1
1.264546567E1,-2.531582130E0,-2.720002222E0,-1.977363442E1,2.011974002E1
1.265540267E1,-3.700748979E0,-2.290761045E0,-1.739439536E1,1.793064748E1
1.266533967E1,-4.155512668E0,-2.237809391E0,-1.359110434E1,1.438729278E1
1.267527767E1,-4.514012184E0,-2.218816173E0,-8.651899298E0,1.000773764E1
1.268521467E1,-5.048010031E0,-3.036457334E0,-1.050278630E0,5.983775030E0
1.269515167E1,-5.078761708E0,-4.225138974E0,9.119724498E0,1.126121640E1
1.270508867E1,-4.911429014E0,-5.352923031E0,1.941229053E1,2.072710649E1
1.271502667E1,-5.220409922E0,-6.897509485E0,2.795763835E1,2.926530128E1
1.272496367E1,-5.940702106E0,-7.881673647E0,3.417329408E1,3.557002600E1
1.273490067E1,-6.355418215E0,-7.928966512E0,3.840695186E1,3.972850113E1
1.274483867E1,-5.298078488E0,-6.511939992E0,4.119105682E1,4.203781821E1
1.275477567E1,-4.519232871E0,-4.754839117E0,4.241651628E1,4.292077368E1
1.276471267E1,-4.646768246E0,-4.006478836E0,4.138227480E1,4.183463871E1
1.277465067E1,-5.165454866E0,-3.425788341E0,3.860649395E1,3.910088649E1
1.278458767E1,-5.745426153E0,-3.107263607E0,3.522213488E1,3.582267151E1
1.279452467E1,-6.323473122E0,-3.200480796E0,3.197619812E1,3.275220048E1
1.280446167E1,-7.190195957E0,-3.532267308E0,2.844277716E1,2.954940613E1
1.281439967E1,-7.730612000E0,-3.988455378E0,2.480777369E1,2.628870049E1
1.282433667E1,-7.733829723E0,-3.926316141E0,2.096350305E1,2.268692444E1
1.283427367E1,-8.188878756E0,-3.625877722E0,1.615787063E1,1.847380599E1
1.284421167E1,-8.720620455E0,-3.461125989E0,1.023133048E1,1.388195727E1
1.285414867E1,-8.166487429E0,-3.657240725E0,3.606005375E0,9.647289848E0
1.286408567E1,-7.527876754E0,-4.843024192E0,-2.819160767E0,9.384640600E0
1.287402367E1,-7.470730746E0,-6.912060866E0,-9.303043479E0,1.378894562E1
1.288396067E1,-7.317500952E0,-8.958612657E0,-1.570431614E1,1.950456630E1
1.289389767E1,-6.508800037E0,-1.104035942E1,-2.018090235E1,2.390654374E1
1.290383479E1,-5.316051659E0,-1.346654812E1,-2.194581423E1,2.629119787E1
1.291377279E1,-4.004513587E0,-1.531177034E1,-2.285145204E1,2.779703761E1
1.292370979E1,-3.075138712E0,-1.629145144E1,-2.503713189E1,3.002875025E1
1.293364679E1,-2.397307254E0,-1.702202478E1,-2.900358361E1,3.371504519E1
1.294358479E1,-1.556063807E0,-1.664380699E1,-3.371828949E1,3.763456778E1
1.295352179E1,-3.998964871E-1,-1.518229310E1,-3.704257660E1,4.003516482E1
1.296345879E1,5.149293454E-1,-1.314720712E1,-3.766906365E1,3.990078400E1
1.297339679E1,1.285345762E0,-1.097138567E1,-3.548746282E1,3.716696698E1
1.298333379E1,2.074758028E0,-8.915626851E0,-3.133870427E1,3.264823744E1
1.299327079E1,2.509080582E0,-6.981806454E0,-2.693988369E1,2.794277080E1
1.300320779E1,2.506238835E0,-5.024480835E0,-2.370964320E1,2.436542266E1
1.301314579E1,1.725750005E0,-3.392522070E0,-2.105054704E1,2.139188981E1
1.302308279E1,7.581467655E-1,-1.689297147E0,-1.797355739E1,1.806868220E1
1.303301979E1,-1.136987429E0,2.577367875E-1,-1.504820943E1,1.509330235E1
1.304295779E1,-3.871186253E0,1.490436266E0,-1.214228709E1,1.283131401E1
1.305289479E1,-6.175597622E0,9.855860589E-1,-6.867174130E0,9.288028123E0
1.306283179E1,-7.388079768E0,-8.942845640E-1,2.698291218E0,7.916074977E0
1.307276979E1,-7.913360878E0,-4.233908628E0,1.711339221E1,1.932396066E1
1.308270679E1,-8.451300625E0,-7.357656705E0,3.439699452E1,3.617613615E1
1.309264379E1,-8.937142850E0,-7.789914461E0,4.927976283E1,5.068579993E1
1.310258079E1,-9.867828963E0,-6.726353881E0,5.694341369E1,5.818221590E1
1.311251879E1,-1.203911648E1,-5.482714262E0,5.606960578E1,5.760903726E1
1.312245579E1,-1.182212631E1,-3.503407790E0,5.070646006E1,5.218411280E1
1.313239279E1,-1.029889740E1,-9.925742126E-1,4.525105931E1,4.641886319E1
1.314233079E1,-9.990247439E0,8.935270572E-1,3.976426603E1,4.100975844E1
1.315226779E1,-1.048032480E1,6.049331971E-1,3.365537812E1,3.525461146E1
1.316220479E1,-9.713503400E0,-1.344447664E0,2.778642954E1,2.946600337E1
1.317214279E1,-7.453535255E0,-3.832232102E0,2.250254634E1,2.401261715E1
1.318207979E1,-4.914997569E0,-6.148147869E0,1.735550669E1,1.905703377E1
1.319201679E1,-3.238895249E0,-8.115649397E0,1.176355943E1,1.465385744E1
1.320195379E1,-2.592479419E0,-9.434415212E0,5.652132073E0,1.129936887E1
1.321189179E1,-2.581395145E0,-1.029470845E1,-1.035890386E0,1.066384977E1
1.322182879E1,-2.715068927E0,-1.044935912E1,-8.088527087E0,1.349018071E1
1.323176579E1,-2.805298188E0,-9.875273638E0,-1.427293646E1,1.758145166E1
1.324170379E1,-3.050937379E0,-9.651512974E0,-1.883658186E1,2.138402997E1
1.325164079E1,-3.594985127E0,-1.051179803E1,-2.146622326E1,2.417065487E1
1.326157779E1,-4.171453348E0,-1.165607591E1,-2.270783506E1,2.586331189E1
1.327151579E1,-4.850194048E0,-1.267074675E1,-2.384576872E1,2.743524907E1
1.328145279E1,-4.695308906E0,-1.368072228E1,-2.587261013E1,2.964118828E1
1.329138979E1,-4.526485173E0,-1.417566218E1,-3.020132961E1,3.366836462E1
1.330132679E1,-3.770144904E0,-1.431317115E1,-3.447590854E1,3.751891697E1
1.331126479E1,-2.382058593E0,-1.432605959E1,-3.792841807E1,4.061373024E1
1.332120179E1,-4.445623443E-1,-1.371839939E1,-3.918872927E1,4.152286864E1
1.333113879E1,6.737015694E-1,-1.209138006E1,-3.647410327E1,3.843196008E1
1.334107679E1,1.409622045E0,-1.038253480E1,-3.109832757E1,3.281600282E1
1.335101379E1,1.706076609E0,-9.448335679E0,-2.508773603E1,2.686217124E1
1.336095079E1,1.988289549E0,-8.194491498E0,-1.932047287E1,2.108040935E1
1.337088779E1,1.645664201E0,-6.185572972E0,-1.580629042E1,1.705310354E1
1.338082579E1,2.350620161E-1,-4.390402923E0,-1.559046969E1,1.619856898E1
1.339076279E1,-1.705190610E-1,-2.961170340E0,-1.614948806E1,1.641960935E1
1.340069979E1,1.811243022E-1,-2.399022827E0,-1.458678226E1,1.478385380E1
1.341063779E1,5.739525472E-2,-3.290905940E0,-9.203865346E0,9.774686360E0
1.342057479E1,-1.082071111E0,-4.019298272E0,1.417584929E0,4.397179041E0
1.343051179E1,-2.223792884E0,-4.864141411E0,1.646883842E1,1.731553538E1
1.344044979E1,-4.321826777E0,-6.199141436E0,2.920343910E1,3.016535093E1
1.345038679E1,-7.216924750E0,-6.938659850E0,3.849653822E1,3.977703431E1
1.346032379E1,-7.763642337E0,-6.729980909E0,4.357294584E1,4.476793936E1
1.347026079E1,-7.235068660E0,-5.930978186E0,4.492634238E1,4.589007475E1
1.348019879E1,-6.666965466E0,-5.231641839E0,4.460287909E1,4.540082959E1
1.349013579E1,-6.680537438E0,-3.957422451E0,4.479099103E1,4.545903266E1
1.350007279E1,-7.747777671E0,-2.320749952E0,4.430883430E1,4.504094511E1
1.351001079E1,-9.858363490E0,-8.451314074E-1,4.132895755E1,4.249687412E1
1.351994779E1,-1.171612097E1,4.851481605E-1,3.585946034E1,3.772802347E1
1.352988479E1,-1.244026237E1,9.957360944E-1,2.895264969E1,3.152788515E1
1.353982279E1,-1.203732840E1,5.397786963E-1,2.251167735E1,2.553359069E1
1.354975979E1,-1.067023067E1,-6.187896363E-1,1.655789035E1,1.970787802E1
1.355969679E1,-9.062312441E0,-2.238248371E0,1.064129397E1,1.415529583E1
1.356963379E1,-7.254488432E0,-3.894066115E0,5.129978639E0,9.700929551E0
1.357957179E1,-5.322905180E0,-5.377581909E0,3.763110119E-1,7.575837692E0
1.358950879E1,-4.118309174E0,-6.558644042E0,-3.241222149E0,8.395344135E0
1.359944579E1,-3.660044172E0,-7.212521796E0,-6.022725093E0,1.008412671E1
1.360938379E1,-3.763324712E0,-7.994662904E0,-9.040384213E0,1.264143167E1
1.361932079E1,-3.577000846E0,-8.724712336E0,-1.218920749E1,1.541078582E1
1.362925779E1,-3.359889636E0,-9.258035122E0,-1.460032908E1,1.761163485E1
1.363919579E1,-3.201122821E0,-9.604772671E0,-1.624525142E1,1.914176165E1
1.364913279E1,-3.190324768E0,-9.769945403E0,-1.703881097E1,1.989851966E1
1.365906979E1,-3.244112720E0,-1.001501624E1,-1.768347936E1,2.057985082E1
1.366900679E1,-3.852714606E0,-1.059600495E1,-1.882616446E1,2.194409258E1
1.367894479E1,-4.541668637E0,-1.123022436E1,-2.116602253E1,2.438739845E1
1.368888179E1,-4.619973380E0,-1.180944604E1,-2.455126803E1,2.763280535E1
1.369881879E1,-3.888247843E0,-1.183257177E1,-2.795061936E1,3.060008739E1
1.370875679E1,-2.221533374E0,-1.103260602E1,-3.005576434E1,3.209365321E1
1.371869379E1,-8.367058620E-2,-9.576560440E0,-3.027535302E1,3.175396843E1
1.372863079E1,1.377688500E0,-8.007605131E0,-2.885131276E1,2.997362196E1
1.373856779E1,1.717199037E0,-6.443372033E0,-2.678279941E1,2.760043768E1
1.374850579E1,1.200701761E0,-4.775187719E0,-2.459526950E1,2.508328894E1
1.375844279E1,8.537778313E-1,-2.927005059E0,-2.257267550E1,2.277766394E1
1.376837979E1,7.606049350E-1,-9.031061120E-1,-2.129368362E1,2.132639404E1
1.377831779E1,1.608414806E-1,2.599765635E-1,-2.096848253E1,2.097071095E1
1.378825479E1,-4.652978866E-1,1.052515628E0,-2.026930757E1,2.030194869E1
1.379819179E1,-8.880485816E-1,1.862637709E0,-1.791284926E1,1.803131215E1
1.380812979E1,-1.256700983E0,1.770427703E0,-1.274531161E1,1.292890868E1
1.381806679E1,-3.292633792E0,3.934152506E-1,-4.457604972E0,5.555758718E0
1.382800379E1,-8.502398273E0,-3.674942586E0,6.645595062E0,1.139999619E1
1.383794079E1,-1.208866345E1,-9.760567639E0,2.239919096E1,2.726037821E1
1.384787879E1,-1.221077670E1,-1.497452048E1,3.980568771E1,4.424739659E1
1.385781579E1,-1.116987291E1,-1.554074730E1,5.606942802E1,5.924577324E1
1.386775279E1,-9.189212224E0,-1.412477504E1,6.451865464E1,6.668288902E1
1.387769079E1,-8.268146535E0,-1.292240623E1,6.118139139E1,6.307545864E1
1.388762779E1,-7.300716519E0,-1.033058346E1,5.093845419E1,5.248568883E1
1.389756479E1,-6.279664612E0,-8.483056269E0,4.022078856E1,4.158254759E1
1.390750250E1,-5.322567796E0,-6.819201819E0,3.210734181E1,3.325225766E1
1.391743950E1,-4.485919529E0,-5.439220333E0,2.488198421E1,2.586158793E1
1.392737650E1,-4.104396309E0,-4.651339014E0,1.833883178E1,1.935959129E1
1.393731350E1,-3.304148714E0,-4.551375600E0,1.269103308E1,1.388145307E1
1.394725150E1,-2.382532510E0,-5.145342198E0,7.585331495E0,9.470388661E0
1.395718850E1,-1.836595087E0,-6.065999166E0,2.507019439E0,6.815759229E0
1.396712550E1,-1.532644831E0,-6.931219853E0,-2.340644519E0,7.474585312E0
1.397706350E1,-1.343361836E0,-7.704475531E0,-6.838798177E0,1.038906756E1
1.398700050E1,-1.076386959E0,-8.323951777E0,-1.064999697E1,1.355983840E1
1.399693750E1,-1.140461333E0,-8.820865120E0,-1.314889228E1,1.587456084E1
1.400687450E1,-1.488169155E0,-8.946315377E0,-1.525013835E1,1.774310925E1
1.401681250E1,-1.850754705E0,-8.733396621E0,-1.728785675E1,1.945681116E1
1.402674950E1,-2.354618779E0,-8.640934600E0,-1.952309293E1,2.147931884E1
1.403668650E1,-2.707759322E0,-8.468507811E0,-2.269332461E1,2.437282436E1
1.404662450E1,-3.193425838E0,-8.284718714E0,-2.604463755E1,2.751649829E1
1.405656150E1,-3.545641352E0,-8.237333463E0,-2.840941762E1,2.979127800E1
1.406649850E1,-3.092839403E0,-8.058013977E0,-2.907339001E1,3.032753290E1
1.407643650E1,-2.161659932E0,-7.971961673E0,-2.746768846E1,2.868272748E1
1.408637350E1,-9.048627618E-1,-7.738740799E0,-2.480980150E1,2.600448301E1
1.409631050E1,5.145315886E-1,-6.908975290E0,-2.262892806E1,2.366573615E1
1.410624750E1,1.652691238E0,-5.470404704E0,-2.223897257E1,2.296145938E1
1.411618550E1,2.207356946E0,-4.602015119E0,-2.365653177E1,2.420087732E1
1.412612250E1,2.615761278E0,-3.994594662E0,-2.513681756E1,2.558629693E1
1.413605950E1,3.141889649E0,-2.860618696E0,-2.567970815E1,2.602886898E1
1.414599750E1,4.017223095E0,-1.751038628E0,-2.454499982E1,2.493313526E1
1.415593450E1,4.397248258E0,-9.189840800E-1,-2.066036935E1,2.114311202E1
1.416587150E1,3.489033287E0,-3.535074556E-1,-1.500577385E1,1.541011258E1
1.417580950E1,1.455896617E0,8.215528026E-2,-7.785361235E0,7.920747061E0
1.418574650E1,-1.709601750E0,6.810876261E-1,7.213329881E-1,1.976598031E0
1.419568350E1,-5.105007520E0,1.848653508E-1,9.155310652E0,1.048403501E1
1.420562050E1,-7.318075148E0,-1.463998958E0,1.732778388E1,1.886662691E1
1.421555850E1,-7.539925527E0,-2.566252610E0,2.687915217E1,2.803435305E1
1.422549550E1,-6.725325356E0,-3.459264820E0,3.655762724E1,3.733171070E1
1.423543250E1,-5.675151976E0,-3.916704488E0,4.382713600E1,4.436626843E1
1.424537050E1,-4.692707480E0,-3.556303749E0,4.822124840E1,4.857939478E1
1.425530750E1,-4.830177859E0,-2.789317456E0,4.865820848E1,4.897685334E1
1.426524450E1,-5.938799422E0,-1.739654830E0,4.533365942E1,4.575408631E1
1.427518150E1,-6.998630648E0,-7.168774098E-1,4.009169608E1,4.070428526E1
1.428511950E1,-7.456806187E0,-1.760046995E-1,3.437817584E1,3.517803164E1
1.429505650E1,-7.809731260E0,-8.799109384E-2,2.844187435E1,2.949474294E1
1.430499350E1,-7.550660430E0,-9.512118861E-2,2.233728531E1,2.357913985E1
1.431493150E1,-6.297797413E0,-3.141151292E-1,1.612237569E1,1.731161224E1
1.432486850E1,-4.423607799E0,-1.076527073E0,1.039606409E1,1.134924513E1
1.433480550E1,-2.659087684E0,-2.263057960E0,5.633522140E0,6.627876760E0
1.434474350E1,-1.523747415E0,-3.411489268E0,1.947164912E0,4.213254847E0
1.435468050E1,-9.685555317E-1,-4.428024785E0,-1.029921548E0,4.648251468E0
1.436461750E1,-9.151903334E-1,-5.379720236E0,-3.180498229E0,6.316211851E0
1.437455550E1,-1.013619219E0,-6.415659739E0,-3.576332510E0,7.414733173E0
1.438449250E1,-1.496467085E0,-7.858000610E0,-2.313025780E0,8.326924737E0
1.439442950E1,-2.349514306E0,-9.063451479E0,-2.555347261E0,9.705471128E0
1.440436650E1,-3.170566733E0,-9.975428256E0,-5.434964145E0,1.179408740E1
1.441430450E1,-3.979561179E0,-1.104269948E1,-9.446269857E0,1.506685545E1
1.442424150E1,-4.652502902E0,-1.207296835E1,-1.335792907E1,1.859668296E1
1.443417850E1,-4.259060133E0,-1.260230392E1,-1.675879132E1,2.139660590E1
1.444411650E1,-2.592509240E0,-1.257710944E1,-1.980062283E1,2.360020022E1
1.445405350E1,-4.293323940E-1,-1.226795428E1,-2.237730132E1,2.552313936E1
1.446399050E1,1.200541547E0,-1.193878996E1,-2.381734190E1,2.666911661E1
1.447392750E1,1.901182408E0,-1.169111710E1,-2.445366865E1,2.717128308E1
1.448386550E1,1.770429018E0,-1.147243241E1,-2.519408519E1,2.773973780E1
1.449380250E1,2.000369458E0,-1.096604833E1,-2.552144273E1,2.784959125E1
1.450373950E1,1.999197238E0,-9.928186262E0,-2.534412007E1,2.729267473E1
1.451367750E1,1.375862707E0,-8.546078728E0,-2.549548343E1,2.692486091E1
1.452361450E1,5.277224685E-1,-7.273448614E0,-2.472140096E1,2.577458459E1
1.453355150E1,1.135250002E0,-5.944992793E0,-2.252818755E1,2.332704366E1
1.454348950E1,2.815762950E0,-4.939420804E0,-2.129284630E1,2.203886799E1
1.455342650E1,4.347949213E0,-4.239240704E0,-2.222485505E1,2.303953138E1
1.456336350E1,4.804905608E0,-3.439105960E0,-2.254106780E1,2.330266734E1
1.457330050E1,3.665562190E0,-2.694522395E0,-2.041657320E1,2.091729568E1
1.458323850E1,1.559386780E0,-1.824171655E0,-1.683129212E1,1.700152004E1
1.459317550E1,-1.804108981E0,-8.310755049E-1,-1.089527129E1,1.107485586E1
1.460311250E1,-6.168844088E0,-7.733536193E-1,-4.360467517E-1,6.232403226E0
1.461305050E1,-1.021673466E1,-1.698610007E0,1.425024693E1,1.761636968E1
1.462298750E1,-1.251091311E1,-3.783552570E0,2.964918639E1,3.240235285E1
1.463292450E1,-1.363247807E1,-6.217050873E0,4.411915998E1,4.659395302E1
1.464286150E1,-1.408406438E1,-6.372807834E0,5.686036451E1,5.892431248E1
1.465279950E1,-1.379905940E1,-4.345838076E0,6.369162446E1,6.531403659E1
1.466273650E1,-1.441627979E1,-2.704566742E0,6.160623137E1,6.332828395E1
1.467267350E1,-1.436560431E1,-4.335324490E-1,5.306962864E1,5.498130611E1
1.468261150E1,-1.393145322E1,1.154913092E0,4.274539643E1,4.497319345E1
1.469254850E1,-1.363784114E1,1.771514408E0,3.358574013E1,3.629229827E1
1.470248550E1,-1.304800209E1,1.650028562E0,2.525778710E1,2.847681095E1
1.471242350E1,-1.196212853E1,6.131581829E-1,1.704706841E1,2.083437120E1
1.472236050E1,-1.002986233E1,-9.748666508E-1,9.342213392E0,1.374137745E1
1.473229750E1,-7.654791155E0,-3.007742535E0,2.584193915E0,8.620928081E0
1.474223450E1,-5.550570030E0,-5.541788097E0,-2.351049054E0,8.188264445E0
1.475217250E1,-4.466110917E0,-8.182101833E0,-5.623634498E0,1.088660655E1
1.476210950E1,-3.506419691E0,-1.055709173E1,-8.508813254E0,1.400525144E1
1.477204650E1,-2.309239416E0,-1.256141668E1,-1.208755131E1,1.758495585E1
1.478198450E1,-1.147956806E0,-1.457322724E1,-1.599561156E1,2.166924886E1
1.479192150E1,4.237659909E-1,-1.658526935E1,-1.975636175E1,2.579853807E1
1.480185850E1,2.282652711E0,-1.846379964E1,-2.270701178E1,2.935525140E1
1.481179650E1,4.055092879E0,-2.008011740E1,-2.513817178E1,3.242811393E1
1.482173350E1,6.298192685E0,-2.099566741E1,-2.872248223E1,3.613123671E1
1.483167050E1,9.038007320E0,-2.085532956E1,-3.103231952E1,3.846602660E1
1.484160750E1,1.131937335E1,-1.927311744E1,-3.130374026E1,3.846433963E1
1.485154550E1,1.236989464E1,-1.655307926E1,-3.101497434E1,3.726858409E1
1.486148250E1,1.225877182E1,-1.371845202E1,-3.060329294E1,3.570763155E1
1.487141950E1,1.185981746E1,-1.137721284E1,-2.915348517E1,3.346672885E1
1.488135750E1,1.108411063E1,-8.979217075E0,-2.683042615E1,3.038676711E1
1.489129450E1,9.544103131E0,-6.168566930E0,-2.491196405E1,2.738150974E1
1.490123217E1,7.491943275E0,-3.336093807E0,-2.233629596E1,2.379430296E1
1.491116917E1,4.326841642E0,-8.277357946E-1,-1.908441142E1,1.958625703E1
1.492110717E1,5.116578648E-1,1.317584532E0,-1.543977524E1,1.550433753E1
1.493104417E1,-3.798399235E0,2.882705968E0,-9.644491637E0,1.075890559E1
1.494098117E1,-8.721028590E0,3.698295488E0,-5.223159868E-1,9.487177830E0
1.495091917E1,-1.220240466E1,1.743901078E0,1.152230565E1,1.687315613E1
1.496085617E1,-1.251601773E1,-2.836965539E0,2.616816349E1,2.914570043E1
1.497079317E1,-1.183240221E1,-7.079966002E0,4.199057234E1,4.419660424E1
1.498073117E1,-1.113371256E1,-9.040827432E0,5.483485159E1,5.667942365E1
1.499066817E1,-1.127393815E1,-9.522735066E0,6.020463974E1,6.198695678E1
1.500060517E1,-1.159340077E1,-9.291029205E0,5.703911623E1,5.894226791E1
1.501054217E1,-1.074823019E1,-7.692440207E0,4.949240969E1,5.122691388E1
1.502048017E1,-9.842109400E0,-6.102754179E0,4.164462768E1,4.322482782E1
1.503041717E1,-9.023744207E0,-4.972616032E0,3.390560387E1,3.543649028E1
1.504035417E1,-8.592883936E0,-4.465771194E0,2.606986946E1,2.781040921E1
1.505029217E1,-7.997013484E0,-4.614562951E0,1.810865380E1,2.032657763E1
1.506022917E1,-6.619770834E0,-5.233443950E0,1.048406468E1,1.345830278E1
1.507016617E1,-4.465555139E0,-6.036665440E0,3.945223405E0,8.482175431E0
1.508010417E1,-2.176048322E0,-6.924680911E0,-1.470512171E0,7.405997439E0
1.509004117E1,-2.850256699E-1,-7.702530162E0,-6.177611988E0,9.877909719E0
1.509997817E1,7.594713791E-1,-8.421078122E0,-9.924058127E0,1.303757198E1
1.510991517E1,1.293111888E0,-8.724964936E0,-1.250586228E1,1.530338992E1
1.511985317E1,1.471581627E0,-9.147428021E0,-1.490876737E1,1.755312896E1
1.512979017E1,1.317190137E0,-9.575844156E0,-1.625912335E1,1.891536078E1
1.513972717E1,1.328308764E0,-9.799384380E0,-1.648324947E1,1.922211881E1
1.514966517E1,1.354624889E0,-1.023105215E1,-1.656656060E1,1.951820603E1
1.515960217E1,1.602972071E0,-1.049846170E1,-1.728995239E1,2.029112296E1
1.516953917E1,1.690454019E0,-1.043934752E1,-1.860838491E1,2.140349505E1
1.517947617E1,1.748799583E0,-1.010313028E1,-1.969883450E1,2.220755777E1
1.518941417E1,1.932840257E0,-9.335472722E0,-2.055668185E1,2.265974605E1
1.519935117E1,2.482687420E0,-8.090845508E0,-2.181821862E1,2.340214054E1
1.520928817E1,2.974651680E0,-7.016580430E0,-2.344996134E1,2.465728371E1
1.521922617E1,2.772157047E0,-6.042002193E0,-2.390052205E1,2.480777296E1
1.522916317E1,2.059738139E0,-4.863819230E0,-2.265472597E1,2.326232722E1
1.523910017E1,1.011216525E0,-3.709334154E0,-2.008545942E1,2.045011977E1
1.524903817E1,-1.234634469E-1,-2.558705609E0,-1.716858290E1,1.735864213E1
1.525897517E1,-1.702184118E0,-1.703180191E0,-1.484703481E1,1.504103374E1
1.526891217E1,-3.580999757E0,-7.552737361E-1,-1.315512659E1,1.365471908E1
1.527884917E1,-4.864952420E0,6.130505942E-1,-1.141468414E1,1.242330902E1
1.528878717E1,-5.422312524E0,1.902967709E0,-9.151547969E0,1.080618293E1
1.529872417E1,-5.549940285E0,2.554586538E0,-5.840088481E0,8.451886359E0
1.530866117E1,-5.395127065E0,2.192797379E0,-9.108558655E-1,5.894524136E0
1.531859917E1,-5.056805997E0,9.428817234E-1,5.725006506E0,7.696493509E0
1.532853617E1,-3.818115461E0,-5.414713190E-1,1.347934417E1,1.402012539E1
1.533847317E1,-2.394685217E0,-2.004657514E0,2.072895485E1,2.096288955E1
1.534841117E1,-1.541003864E0,-2.902928563E0,2.677354444E1,2.697451332E1
1.535834817E1,-1.222811106E0,-3.020431286E0,3.132539133E1,3.149441877E1
1.536828517E1,-1.572935217E0,-2.875003138E0,3.398020967E1,3.413787365E1
1.537822217E1,-1.975576679E0,-2.820491009E0,3.484626650E1,3.501600151E1
1.538816017E1,-2.134648281E0,-2.782795764E0,3.434824044E1,3.452683444E1
1.539809717E1,-1.959210323E0,-2.589433897E0,3.220657608E1,3.236985041E1
1.540803417E1,-1.393463557E0,-2.385385659E0,2.846571462E1,2.859945304E1
1.541797217E1,-4.605978581E-1,-2.758487426E0,2.314866835E1,2.331699486E1
1.542790917E1,-2.427953973E-2,-3.665387650E0,1.722814264E1,1.761376039E1
1.543784617E1,1.156290184E-1,-4.449469741E0,1.156962132E1,1.239626107E1
1.544778317E1,1.889802923E-1,-4.938868243E0,6.124732693E0,7.870227674E0
1.545772117E1,-4.059861795E-1,-4.993178351E0,1.418548551E0,5.206624128E0
1.546765817E1,-1.211379507E0,-4.939237787E0,-2.385693807E0,5.617387753E0
1.547759517E1,-1.717195236E0,-5.053650255E0,-5.576235214E0,7.718972700E0
1.548753317E1,-2.219004453E0,-5.596895181E0,-8.012931944E0,1.002278877E1
1.549747017E1,-2.533644443E0,-5.977263576E0,-1.004937448E1,1.196398602E1
1.550740717E1,-2.548515959E0,-5.874508701E0,-1.255424799E1,1.409304540E1
1.551734517E1,-2.668971232E0,-5.732126076E0,-1.519330224E1,1.645652180E1
1.552728217E1,-2.494172814E0,-5.252839749E0,-1.728330761E1,1.823529395E1
1.553721917E1,-2.163625035E0,-4.348125799E0,-1.907469335E1,1.968327710E1
1.554715617E1,-2.186167513E0,-3.449880916E0,-2.060505469E1,2.100593453E1
1.555709417E1,-2.676839538E0,-2.697121190E0,-2.145978197E1,2.179362693E1
1.556703117E1,-3.695071625E0,-2.221190581E0,-2.108106716E1,2.151740307E1
1.557696817E1,-4.398990436E0,-1.962294290E0,-2.072928698E1,2.128156607E1
1.558690617E1,-4.539679999E0,-1.717630708E0,-2.122471454E1,2.177263092E1
1.559684317E1,-4.362852597E0,-1.666167901E0,-2.176603573E1,2.226142201E1
1.560678017E1,-4.156719826E0,-1.436878987E0,-2.195435116E1,2.239054434E1
1.561671717E1,-3.665158440E0,-8.892445564E-1,-2.197042399E1,2.229178486E1
1.562665517E1,-2.551916699E0,8.769654036E-3,-2.059713289E1,2.075461970E1
1.563659217E1,-1.340419663E0,9.263765685E-1,-1.793368990E1,1.800755763E1
1.564652917E1,-2.186428884E-1,2.132393302E0,-1.465612088E1,1.481204865E1
1.565646717E1,1.643333647E-1,3.670949230E0,-1.006539235E1,1.071517600E1
1.566640417E1,-3.252321479E-1,4.602131771E0,-4.413929780E0,6.384995606E0
1.567634117E1,-1.312040202E0,4.389306862E0,2.964814324E0,5.456884477E0
1.568627917E1,-3.313079751E0,2.346160051E0,1.244463258E1,1.309006664E1
1.569621617E1,-5.854352179E0,-2.472315044E0,2.399768406E1,2.482487908E1
1.570615317E1,-8.986914935E0,-7.428376440E0,3.814421308E1,3.988641884E1
1.571609017E1,-1.026238738E1,-1.050930594E1,5.008037295E1,5.219009352E1
1.572602817E1,-8.902793382E0,-1.184697464E1,5.728803922E1,5.917372707E1
1.573596517E1,-7.479554780E0,-1.194556220E1,5.579798156E1,5.755045562E1
1.574590217E1,-6.885585258E0,-1.190785935E1,4.503087188E1,4.708490014E1
1.575584017E1,-6.087557266E0,-1.088099473E1,3.329803607E1,3.555578161E1
1.576577717E1,-5.287999057E0,-9.979678012E0,2.314366313E1,2.575239892E1
1.577571417E1,-4.460429762E0,-9.426588714E0,1.440360068E1,1.778256790E1
1.578565217E1,-3.659252459E0,-9.376909600E0,6.922847224E0,1.221647969E1
1.579558917E1,-3.580946547E0,-9.762022426E0,-4.078766209E-1,1.040608588E1
1.580552617E1,-3.572467208E0,-9.793991493E0,-7.770240335E0,1.300236233E1
1.581546317E1,-2.562628798E0,-1.012034214E1,-1.494867696E1,1.823324804E1
1.582540117E1,-8.401239250E-1,-1.075811783E1,-2.154515365E1,2.409640126E1
1.583533817E1,1.051415036E0,-1.086003480E1,-2.627959271E1,2.845457472E1
1.584527517E1,2.825985930E0,-1.040101902E1,-3.007556769E1,3.194850802E1
1.585521317E1,3.635852195E0,-9.755108094E0,-3.325420534E1,3.484571319E1
1.586515017E1,3.939101370E0,-8.610179415E0,-3.414637350E1,3.543482090E1
1.587508717E1,4.005799974E0,-7.588430520E0,-3.227868628E1,3.339976496E1
1.588502417E1,3.614578270E0,-6.789245948E0,-2.948678582E1,3.047342407E1
1.589496217E1,3.314341873E0,-5.970267382E0,-2.767453488E1,2.850454062E1
1.590489912E1,2.822793058E0,-5.293464450E0,-2.708432629E1,2.774075805E1
1.591483612E1,2.170473586E0,-4.408570514E0,-2.667282732E1,2.712169181E1
1.592477412E1,1.271422080E0,-3.925686103E0,-2.522742602E1,2.556267883E1
1.593471112E1,5.756284140E-1,-3.267546313E0,-2.257144291E1,2.281399224E1
1.594464812E1,-6.069500845E-1,-2.481637553E0,-1.899043029E1,1.916150714E1
1.595458612E1,-2.302130810E0,-1.974626507E0,-1.413086550E1,1.445269234E1
1.596452312E1,-3.621719182E0,-1.998111117E0,-8.061249826E0,9.060521322E0
1.597446012E1,-3.779006067E0,-2.274793176E0,-1.230269961E0,4.579206812E0
1.598439712E1,-2.867843808E0,-2.689769486E0,6.289328890E0,7.417212811E0
1.599433512E1,-1.246184474E0,-3.840949131E0,1.386546739E1,1.444150449E1
1.600427212E1,3.554077276E-1,-5.222878032E0,2.132523520E1,2.195837940E1
1.601420912E1,1.511426309E0,-5.808066205E0,2.873566419E1,2.935568836E1
1.602414712E1,1.904709449E0,-6.124110550E0,3.600463033E1,3.657138298E1
1.603408412E1,1.648190344E0,-6.345163368E0,4.248341778E1,4.298625845E1
1.604402112E1,8.602406857E-1,-6.442225978E0,4.574944323E1,4.620880701E1
1.605395812E1,-4.725038490E-1,-6.382942813E0,4.469222454E1,4.514820210E1
1.606389612E1,-1.831611359E0,-6.369534563E0,4.065152254E1,4.118825142E1
1.607383312E1,-2.683469696E0,-6.108438842E0,3.502291790E1,3.565275324E1
1.608377012E1,-2.981160800E0,-5.769604390E0,2.868617804E1,2.941211425E1
1.609370812E1,-3.037020713E0,-5.594912975E0,2.166866322E1,2.258445288E1
1.610364512E1,-2.860706696E0,-5.210350957E0,1.497843812E1,1.611474506E1
1.611358212E1,-3.131910498E0,-4.694766285E0,9.023992129E0,1.064340771E1
1.612352012E1,-3.972650939E0,-4.334772221E0,3.844011610E0,7.024858073E0
1.613345712E1,-4.515253256E0,-4.557625104E0,-4.981780958E-1,6.434876842E0
1.614339412E1,-4.450779225E0,-5.429097633E0,-4.588348129E0,8.386744027E0
1.615333112E1,-3.904104030E0,-6.598194609E0,-8.350937262E0,1.133650535E1
1.616326912E1,-2.621940908E0,-7.655741912E0,-1.151605147E1,1.407495647E1
1.617320612E1,-7.654409478E-1,-8.409584250E0,-1.461838412E1,1.688206626E1
1.618314312E1,8.118866242E-1,-9.055919681E0,-1.748226731E1,1.970529146E1
1.619308112E1,2.028452320E0,-9.242432996E0,-1.962065957E1,2.178319233E1
1.620301812E1,2.842613657E0,-9.045667173E0,-2.138588252E1,2.339359994E1
1.621295512E1,3.390615000E0,-8.476065338E0,-2.242546600E1,2.421242407E1
1.622289312E1,3.801231626E0,-7.591860496E0,-2.267627647E1,2.421361646E1
1.623283012E1,4.037639233E0,-6.797608051E0,-2.227547791E1,2.363698208E1
1.624276712E1,3.724434588E0,-5.822341012E0,-2.113107489E1,2.223271000E1
1.625270412E1,3.477937026E0,-4.697615925E0,-2.052536884E1,2.134137782E1
1.626264212E1,3.169812735E0,-4.021294219E0,-2.081938555E1,2.143980725E1
1.627257912E1,2.467810057E0,-3.502155024E0,-2.056933990E1,2.101078105E1
1.628251613E1,1.754011353E0,-2.819666259E0,-1.890186602E1,1.919134213E1
1.629245413E1,1.074454454E0,-1.750262849E0,-1.639322106E1,1.652136705E1
1.630239113E1,1.249252508E-1,-1.387251914E-3,-1.363043973E1,1.363101227E1
1.631232813E1,-1.085909808E0,1.797828486E0,-1.143708365E1,1.162833908E1
1.632226512E1,-2.153114372E0,2.888950210E0,-9.183976042E0,9.865462521E0
1.633220312E1,-2.849121315E0,3.533948382E0,-4.966637254E0,6.728578531E0
1.634214012E1,-3.534016210E0,2.859073569E0,2.335673216E0,5.110669390E0
1.635207712E1,-4.038225124E0,6.676670967E-1,1.182360215E1,1.251201859E1
1.636201512E1,-4.045730610E0,-1.740443619E0,2.105533708E1,2.151102739E1
1.637195212E1,-3.777500702E0,-3.360224974E0,2.895174454E1,2.938986450E1
1.638188912E1,-3.373956867E0,-3.901645861E0,3.472445497E1,3.510547248E1
1.639182712E1,-3.053380930E0,-4.043893999E0,3.721448006E1,3.755787188E1
1.640176412E1,-2.899653538E0,-4.125318524E0,3.655665426E1,3.690278058E1
1.641170112E1,-2.938641602E0,-3.917589464E0,3.245132182E1,3.281876611E1
1.642163812E1,-3.078478934E0,-3.303916872E0,2.705677421E1,2.743103953E1
