"Time (s)","Linear Acceleration x (m/s^2)","Linear Acceleration y (m/s^2)","Linear Acceleration z (m/s^2)","Absolute acceleration (m/s^2)"
3.260583384E-3,5.140212728E-1,-9.887934029E-2,-9.737742448E-1,1.105545690E0
1.319858339E-2,8.032543798E-1,-2.527900431E-1,-1.455419338E0,1.681477284E0
2.313658339E-2,6.470954226E-1,-4.152125376E-1,-1.731371664E0,1.894408028E0
3.307458339E-2,7.659131835E-1,-4.934301567E-1,-1.528637588E0,1.779558709E0
4.301158339E-2,8.524459818E-1,-3.708716395E-1,-9.983559394E-1,1.364157068E0
5.294958339E-2,9.642109774E-1,-2.106652397E-1,-5.041983891E-1,1.108286365E0
6.288758339E-2,1.082132945E0,-1.824530089E-1,-1.255783117E-1,1.104568116E0
7.282558340E-2,1.045521189E0,-3.234837574E-1,2.431219643E-1,1.121099722E0
8.276258339E-2,1.054749265E0,-4.879808441E-1,5.064513212E-1,1.267720102E0
9.270058339E-2,8.711216962E-1,-4.452792129E-1,6.922629708E-1,1.198480124E0
1.026385834E-1,4.944440639E-1,-1.893614942E-1,7.673447281E-1,9.322824891E-1
1.125755834E-1,9.858814895E-2,2.164022353E-1,7.036638719E-1,7.427599849E-1
1.225135834E-1,-8.616647020E-2,5.634131420E-1,7.040462798E-1,9.058367365E-1
1.324515834E-1,-4.179523967E-1,7.762199244E-1,7.718932772E-1,1.171759706E0
1.423885834E-1,-5.835367732E-1,7.498551214E-1,6.353906125E-1,1.143030664E0
1.523265834E-1,-3.765966484E-1,6.517856205E-1,4.237383628E-1,8.638308461E-1
1.622645834E-1,7.830445021E-3,5.834512576E-1,3.947852898E-1,7.045084179E-1
1.722025833E-1,2.905762124E-1,4.423646683E-1,8.051206648E-2,5.353533672E-1
1.821395834E-1,6.113024229E-1,3.657497710E-1,-4.430236495E-1,8.388882531E-1
1.920775833E-1,9.737138723E-1,3.273306406E-1,-9.723679894E-1,1.414483496E0
2.020155833E-1,1.253541441E0,3.637617177E-1,-1.433222723E0,1.938508732E0
2.119535833E-1,1.446599691E0,3.965499794E-1,-1.741669781E0,2.298546535E0
2.218905833E-1,1.457336348E0,4.217158109E-1,-1.807536326E0,2.359843433E0
2.318285833E-1,1.377971213E0,4.735253575E-1,-1.699076908E0,2.238279086E0
2.417665833E-1,1.299537832E0,5.395132327E-1,-1.497241548E0,2.054654559E0
2.517035833E-1,1.230122611E0,6.102078241E-1,-1.264615336E0,1.866763824E0
2.616415833E-1,1.204637522E0,6.914969856E-1,-1.072299244E0,1.754749357E0
2.715795833E-1,1.150249353E0,8.061816421E-1,-7.751016444E-1,1.604302020E0
2.815175833E-1,1.011294000E0,9.331311259E-1,-4.177484751E-1,1.438041391E0
2.914545833E-1,9.573967785E-1,1.007385210E0,-1.788914698E-1,1.401226502E0
3.013925833E-1,8.108156336E-1,9.766247624E-1,-9.847763658E-2,1.273151901E0
3.113305833E-1,6.278127672E-1,9.555397028E-1,-1.431030017E-1,1.152251476E0
3.212675833E-1,5.879295670E-1,9.651431698E-1,-3.190024513E-1,1.174276406E0
3.312055833E-1,5.679043152E-1,1.016829340E0,-4.688326746E-1,1.255492451E0
3.411435833E-1,6.249786948E-1,1.078538515E0,-4.560968542E-1,1.327353773E0
3.510816250E-1,5.729418377E-1,1.092096162E0,-2.044022870E-1,1.250086665E0
3.610186250E-1,4.428581002E-1,1.123600960E0,2.276701123E-1,1.228998004E0
3.709566250E-1,2.526837699E-1,1.137089902E0,7.307604539E-1,1.375075770E0
3.808946250E-1,1.349050226E-1,1.093393074E0,9.316392088E-1,1.442795687E0
3.908316250E-1,1.493041932E-1,1.079294268E0,9.260492706E-1,1.429942345E0
4.007696250E-1,1.745860188E-1,1.068743260E0,7.646678728E-1,1.325673183E0
4.107076250E-1,2.635037501E-1,1.093296595E0,6.059767789E-1,1.277473885E0
4.206456250E-1,3.791957358E-1,1.202222621E0,6.190423822E-1,1.404400979E0
4.305826250E-1,3.898564890E-1,1.233091827E0,7.333314747E-1,1.486700571E0
4.405206250E-1,3.444687931E-1,1.203485035E0,7.892676938E-1,1.479857585E0
4.504586250E-1,2.874503275E-1,1.150093817E0,7.889455122E-1,1.424000878E0
4.603956250E-1,2.845476234E-1,1.195110945E0,7.372134411E-1,1.432739048E0
4.703336250E-1,2.598208448E-1,1.355223205E0,6.361677074E-1,1.519488782E0
4.802716250E-1,1.619148101E-1,1.441938583E0,4.847435331E-1,1.529829917E0
4.902096250E-1,-1.115440074E-1,1.407171038E0,4.274875975E-1,1.474895943E0
5.001466250E-1,-4.041069940E-1,1.251152122E0,5.009794968E-1,1.407005526E0
5.100846250E-1,-5.792138536E-1,1.050329500E0,6.036472481E-1,1.342784699E0
5.200226250E-1,-6.172339115E-1,8.592202735E-1,6.994369197E-1,1.268246500E0
5.299596250E-1,-5.459382629E-1,7.146697935E-1,7.544867009E-1,1.173904461E0
5.398976250E-1,-3.878470568E-1,6.281871352E-1,7.589954889E-1,1.058828866E0
5.498356250E-1,-2.461710680E-1,5.817894790E-1,7.502539015E-1,9.807956511E-1
5.597736250E-1,-2.049480880E-1,5.224531040E-1,6.186441869E-1,8.352733652E-1
5.697106250E-1,-2.820320051E-1,4.623218000E-1,4.236927545E-1,6.876038459E-1
5.796486250E-1,-3.156784554E-1,4.381888792E-1,4.121497661E-1,6.793598536E-1
5.895866250E-1,-4.107032380E-1,4.189079779E-1,5.348114866E-1,7.938415269E-1
5.995236250E-1,-6.281277859E-1,3.450722623E-1,6.708475435E-1,9.816597212E-1
6.094616250E-1,-9.065998234E-1,1.953079663E-1,6.474388003E-1,1.131037330E0
6.193996250E-1,-1.108476040E0,-4.517164126E-2,5.139585614E-1,1.222666353E0
6.293376250E-1,-1.217265899E0,-2.763207006E-1,3.781809515E-1,1.304266166E0
6.392746250E-1,-1.215111273E0,-4.926043837E-1,2.434628570E-1,1.333577387E0
6.492126250E-1,-1.214047519E0,-6.155688438E-1,1.255432284E-1,1.366966525E0
6.591506250E-1,-1.229661558E0,-6.371456543E-1,3.025290906E-2,1.385257150E0
6.690876250E-1,-1.254231266E0,-6.119549721E-1,-8.093072712E-2,1.397903694E0
6.790256250E-1,-1.347482661E0,-5.362725596E-1,-2.348218417E-1,1.469162713E0
6.889636250E-1,-1.526415938E0,-4.367949030E-1,-5.030581820E-1,1.665473788E0
6.989016250E-1,-1.641915112E0,-3.847007431E-1,-9.586346340E-1,1.939809336E0
7.088386250E-1,-1.534371952E0,-3.658501969E-1,-1.565084453E0,2.222078531E0
7.187766250E-1,-1.222372346E0,-3.090434736E-1,-1.520837402E0,1.975512193E0
7.287146250E-1,-9.940102156E-1,-2.849313104E-1,-1.570065111E0,1.879985801E0
7.386516250E-1,-9.571816740E-1,-3.121958537E-1,-1.513373432E0,1.817680432E0
7.485896250E-1,-8.581652896E-1,-3.986010365E-1,-1.453354102E0,1.734234297E0
7.585276250E-1,-8.480469753E-1,-2.526748529E-1,-1.419541993E0,1.672760510E0
7.684656250E-1,-8.071638282E-1,-9.084672779E-3,-1.475317413E0,1.681712653E0
7.784026250E-1,-7.104505158E-1,1.630383526E-1,-1.430973299E0,1.605928399E0
7.883406250E-1,-6.890658595E-1,2.929661156E-1,-1.432933871E0,1.616768499E0
7.982786250E-1,-7.455739363E-1,3.785560504E-1,-1.451723898E0,1.675317120E0
8.082156250E-1,-8.016090464E-1,4.469145329E-1,-1.498472972E0,1.757194045E0
8.181536250E-1,-7.102835047E-1,5.187586869E-1,-1.507467744E0,1.745300040E0
8.280916250E-1,-4.108947343E-1,5.929773952E-1,-1.365047112E0,1.543959291E0
8.380296250E-1,7.811880112E-3,7.389028479E-1,-1.116702999E0,1.339053409E0
8.479666250E-1,4.103996944E-1,1.001482884E0,-9.210773832E-1,1.421189439E0
8.579046250E-1,5.015956472E-1,1.244196567E0,-1.047881856E0,1.702257229E0
8.678426250E-1,7.059583193E-1,1.440884914E0,-9.982863575E-1,1.889735997E0
8.777806250E-1,8.638702717E-1,1.518958546E0,-9.197313541E-1,1.974693058E0
8.877176250E-1,6.388758454E-1,1.420803822E0,-7.458035856E-1,1.727156285E0
8.976556250E-1,2.865337399E-1,1.149119817E0,-4.777871007E-1,1.277050685E0
9.075936250E-1,-1.928533052E-1,9.712837695E-1,-1.964196682E-1,1.009537144E0
9.175306250E-1,-5.192958999E-1,1.007573929E0,-1.171548128E-1,1.139560750E0
9.274686250E-1,-5.919178797E-1,1.222773830E0,-1.291556382E-1,1.364633209E0
9.374066250E-1,-1.511974485E-1,1.467335964E0,-5.266762555E-2,1.476045182E0
9.473436250E-1,5.408205239E-1,1.606030457E0,-2.618815863E-1,1.714760226E0
9.572816250E-1,9.159778802E-1,1.478303148E0,-5.599007195E-1,1.826987819E0
9.672196250E-1,8.188734622E-1,1.452326015E0,-7.651280487E-1,1.834455105E0
9.771576250E-1,2.497946607E-1,1.726272600E0,-5.532588673E-1,1.829893395E0
9.870946250E-1,1.706271614E-1,1.944027881E0,-6.422464728E-2,1.952558024E0
9.970326250E-1,4.201427637E-1,1.907400484E0,3.897274482E-1,1.991628487E0
1.006970625E0,6.251720184E-1,1.863842528E0,8.614001155E-1,2.146336222E0
1.016907625E0,5.510796100E-1,1.795684605E0,1.541623085E0,2.429974006E0
1.026845625E0,4.842468122E-1,1.773578475E0,2.013924912E0,2.726897346E0
1.036783625E0,5.219929281E-1,1.680775415E0,2.195479789E0,2.813825530E0
1.046721625E0,8.062925930E-1,1.460099304E0,2.090474905E0,2.674337872E0
1.056658625E0,1.124069322E0,1.288391869E0,1.666874537E0,2.387876917E0
1.066596625E0,9.042986517E-1,9.653535233E-1,1.261178343E0,1.827630786E0
1.076534625E0,6.046775275E-1,6.248748337E-1,1.158467322E0,1.448499225E0
1.086471625E0,6.155403386E-1,5.468454950E-1,1.167069746E0,1.428279278E0
1.096409625E0,6.325108588E-1,5.162328359E-1,1.615510840E0,1.810094363E0
1.106347625E0,3.260807251E-1,2.434443652E-1,2.322221112E0,2.357605711E0
1.116285625E0,-1.202336642E-1,-1.568008353E-1,2.838410971E0,2.845280210E0
1.126222625E0,-3.205058435E-1,-5.611078772E-1,2.829629037E0,2.902475932E0
1.136160625E0,-3.300292037E-1,-7.587206697E-1,2.596591181E0,2.725226980E0
1.146098625E0,-1.334405144E-1,-7.047559125E-1,2.433336335E0,2.536850998E0
1.156035625E0,3.050888555E-1,-6.691613527E-1,1.619532555E0,1.778691042E0
1.165973625E0,5.378984145E-1,-9.326445644E-1,1.654089600E-1,1.089275315E0
1.175911625E0,6.623350208E-1,-1.082882850E0,-1.284690582E0,1.806032347E0
1.185849625E0,8.321914461E-1,-9.353746294E-1,-2.329896752E0,2.644973946E0
1.195786625E0,9.022475946E-1,-8.008813604E-1,-2.551541893E0,2.822379795E0
1.205724625E0,9.635550660E-1,-7.811041036E-1,-2.012435626E0,2.363992203E0
1.215662625E0,1.288313516E0,-8.238934430E-1,-1.328073413E0,2.025421219E0
1.225599625E0,1.075017030E0,-6.812460125E-1,-7.457223094E-1,1.475079492E0
1.235537625E0,8.277590373E-1,-7.157137408E-1,-1.804760653E-1,1.109054910E0
1.245475625E0,9.421691671E-1,-9.762938100E-1,-9.781222343E-3,1.356808024E0
1.255413625E0,9.980567081E-1,-1.188678277E0,1.040845317E-1,1.555604972E0
1.265350625E0,4.795667738E-1,-1.365186714E0,1.080413425E-1,1.450996894E0
1.275288625E0,2.778347275E-1,-1.377822109E0,-2.816252947E-1,1.433491788E0
1.285226625E0,2.738760163E-1,-1.138013031E0,-4.799979329E-3,1.170514746E0
1.295163625E0,-1.288349550E-1,-7.777302602E-1,7.290255851E-1,1.073750952E0
1.305101625E0,-5.269837094E-1,-6.403686395E-1,4.503338385E-1,9.437077887E-1
1.315039625E0,-7.116700257E-1,-6.913404264E-1,-2.828900474E-1,1.031723117E0
1.324977625E0,-5.019287923E-1,-6.667337349E-1,-7.540271097E-1,1.124732532E0
1.334914625E0,-2.941454807E-1,-6.242278393E-1,-1.477330610E0,1.630548279E0
1.344852833E0,9.700337078E-2,-4.607782082E-1,-1.768169362E0,1.829794826E0
1.354790833E0,4.139461769E-1,-3.008036504E-1,-1.754427820E0,1.827525992E0
1.364727833E0,5.289942379E-1,-1.425747058E-1,-1.697328005E0,1.783559589E0
1.374665833E0,7.480879466E-1,1.540663849E-1,-1.607356898E0,1.779597771E0
1.384603833E0,8.063409057E-1,4.404168145E-1,-1.520394768E0,1.776443885E0
1.394541833E0,6.080336101E-1,5.846692327E-1,-1.343004279E0,1.585939304E0
1.404478833E0,4.399702334E-1,7.156022783E-1,-1.097469168E0,1.382063313E0
1.414416833E0,2.794214791E-1,8.296511232E-1,-8.044915044E-1,1.188950769E0
1.424354833E0,9.819061138E-2,8.784673340E-1,-5.708396906E-1,1.052237713E0
1.434291833E0,5.388560057E-2,8.973547907E-1,-4.823186928E-1,1.020186551E0
1.444229833E0,6.276390318E-2,9.233206674E-1,-4.813784605E-1,1.043161342E0
1.454167833E0,6.905130453E-2,9.960828343E-1,-6.138278353E-1,1.172063866E0
1.464105833E0,1.282199741E-1,1.141720604E0,-7.553667068E-1,1.374970967E0
1.474042833E0,1.872052603E-1,1.313099133E0,-8.916536093E-1,1.598224421E0
1.483980833E0,2.891769006E-1,1.447851287E0,-9.441329545E-1,1.752507822E0
1.493918833E0,4.571705492E-1,1.489165813E0,-9.003373092E-1,1.799229557E0
1.503855833E0,7.079234223E-1,1.353399459E0,-7.137842327E-1,1.685922180E0
1.513793833E0,8.119443655E-1,1.160457276E0,-3.798240191E-1,1.466349558E0
1.523731833E0,8.712639298E-1,1.045094927E0,-1.209379613E-1,1.365997889E0
1.533668833E0,9.530375330E-1,9.836681722E-1,6.563733459E-2,1.371200887E0
1.543606833E0,1.070256884E0,8.195350747E-1,2.276911622E-1,1.367088440E0
1.553544833E0,1.205065976E0,5.340099795E-1,5.305453581E-1,1.420855039E0
1.563482833E0,1.353824843E0,1.547801837E-1,9.139736009E-1,1.640776144E0
1.573419833E0,1.601128736E0,-1.442332685E-1,1.435025420E0,2.154927939E0
1.583357833E0,1.807425521E0,-2.055585739E-1,1.901272455E0,2.631326337E0
1.593295833E0,1.789456589E0,-1.366251639E-1,2.154208971E0,2.803825532E0
1.603232833E0,1.683630903E0,-8.843489751E-2,2.362958663E0,2.902758583E0
1.613170833E0,1.620081901E0,-1.172252718E-1,2.132117021E0,2.680360073E0
1.623108833E0,1.704017074E0,-3.485890701E-2,1.650292418E0,2.372415309E0
1.633046833E0,1.674971030E0,1.471162382E-1,1.089874220E0,2.003745731E0
1.642983833E0,1.357108640E0,2.484680736E-1,5.912874037E-1,1.501033323E0
1.652921833E0,9.653863408E-1,1.410784033E-1,4.357596534E-1,1.068531880E0
1.662859833E0,8.620324188E-1,-2.867784458E-1,8.886510640E-1,1.270843217E0
1.672796833E0,8.781772390E-1,-9.011434941E-1,1.884937089E0,2.266328019E0
1.682734833E0,8.093574842E-1,-1.565807461E0,2.946723039E0,3.433655372E0
1.692672833E0,7.951228032E-1,-2.110241710E0,3.475877929E0,4.143316030E0
1.702610833E0,8.747613687E-1,-2.448238403E0,3.262839305E0,4.171953866E0
1.712547833E0,9.963575073E-1,-2.467914722E0,2.587930870E0,3.712238886E0
1.722485833E0,1.148277306E0,-2.218516941E0,1.783957429E0,3.069668109E0
1.732423833E0,1.351365651E0,-1.942921880E0,7.203465629E-1,2.473870192E0
1.742360833E0,1.463795036E0,-1.736335073E0,-5.329269290E-1,2.332716551E0
1.752298833E0,1.376230935E0,-1.588233287E0,-1.426267460E0,2.539829803E0
1.762236833E0,1.184473837E0,-1.509680915E0,-1.870331329E0,2.679599600E0
1.772173833E0,1.060244259E0,-1.560328620E0,-1.887356082E0,2.668493258E0
1.782111833E0,1.186144313E0,-1.692740865E0,-1.532870387E0,2.573325007E0
1.792049833E0,1.424390358E0,-1.987484680E0,-9.553987849E-1,2.625218102E0
1.801987833E0,1.709118477E0,-2.345693297E0,-3.572993749E-1,2.924213716E0
1.811924833E0,1.943484529E0,-2.600738904E0,2.899692714E-2,3.246816253E0
1.821862833E0,1.992345032E0,-2.676726979E0,-2.261293709E-2,3.336887381E0
1.831800833E0,1.894267491E0,-2.613642539E0,-3.872879899E-1,3.251056542E0
1.841737833E0,1.645732759E0,-2.408202371E0,-7.588569099E-1,3.013924151E0
1.851675833E0,1.474918633E0,-2.029219474E0,-1.275010516E0,2.814030644E0
1.861613833E0,1.380513290E0,-1.660311330E0,-1.711188245E0,2.755107233E0
1.871551833E0,1.371143565E0,-1.366858580E0,-2.067170827E0,2.832230973E0
1.881488833E0,1.487519675E0,-1.093253033E0,-2.276188906E0,2.930691542E0
1.891426833E0,1.773229542E0,-8.588939989E-1,-2.292975678E0,3.023206802E0
1.901364833E0,2.153569724E0,-7.663676584E-1,-2.151917447E0,3.139415654E0
1.911301833E0,2.508389734E0,-7.953110835E-1,-1.883417398E0,3.236016049E0
1.921239833E0,2.802214952E0,-9.221459618E-1,-1.633531959E0,3.372119285E0
1.931177833E0,2.961817042E0,-1.106992528E0,-1.342189177E0,3.435005740E0
1.941115833E0,2.939989678E0,-1.362997371E0,-9.834063631E-1,3.386501028E0
1.951052833E0,2.749426289E0,-1.602206671E0,-5.983894318E-1,3.237974837E0
1.960990833E0,2.493087570E0,-1.773606395E0,-1.305882061E-1,3.062387722E0
1.970928833E0,2.265510429E0,-2.009590956E0,3.537770122E-1,3.048959083E0
1.980865833E0,2.061784811E0,-2.208262241E0,5.858377987E-1,3.077431503E0
1.990803833E0,1.819191142E0,-2.541660683E0,1.044581687E0,3.295549475E0
2.000741833E0,1.776302985E0,-2.934269055E0,1.859317514E0,3.901570042E0
2.010678833E0,1.777309583E0,-2.974781488E0,1.755834661E0,3.884727740E0
2.020616833E0,1.767152239E0,-3.004154976E0,1.739557182E0,3.895360489E0
2.030554833E0,1.879840656E0,-3.025999297E0,1.801042408E0,3.991769832E0
2.040492833E0,2.018767430E0,-3.042738706E0,1.746573256E0,4.047739975E0
2.050429833E0,2.080847319E0,-3.181215098E0,1.752538000E0,4.185862457E0
2.060367833E0,2.145241389E0,-3.314487761E0,1.735459453E0,4.312738022E0
2.070305833E0,2.222087982E0,-3.261837092E0,1.619137868E0,4.266012617E0
2.080242833E0,2.306496487E0,-3.079971728E0,1.623778803E0,4.176458966E0
2.090180833E0,2.369704011E0,-2.874001218E0,1.591882242E0,4.050860300E0
2.100118833E0,2.420922550E0,-2.761496111E0,1.473566172E0,3.957034752E0
2.110055833E0,2.214831003E0,-2.638506654E0,1.295580436E0,3.680451386E0
2.119993833E0,1.804870288E0,-2.463303608E0,1.299584609E0,3.318786160E0
2.129931833E0,1.328216524E0,-2.311322194E0,1.504151788E0,3.060856419E0
2.139869833E0,8.700331639E-1,-2.270303099E0,1.921237773E0,3.098772087E0
2.149806833E0,6.497701583E-1,-2.411205940E0,2.437403074E0,3.489562879E0
2.159744833E0,7.190201951E-1,-2.643600456E0,2.886292065E0,3.979484301E0
2.169682833E0,1.078905940E0,-2.849372161E0,3.184749155E0,4.407446757E0
2.179619833E0,1.519874366E0,-3.093215964E0,3.216516493E0,4.714231797E0
2.189557833E0,1.908585422E0,-3.306637874E0,2.913992665E0,4.802905953E0
2.199495833E0,2.251370692E0,-3.492488700E0,2.434846087E0,4.816079606E0
2.209433833E0,2.497042335E0,-3.572143857E0,1.854405268E0,4.736480872E0
2.219370833E0,2.596097384E0,-3.487159547E0,1.261212841E0,4.526661150E0
2.229308833E0,2.647812206E0,-3.357264529E0,7.327502614E-1,4.338093768E0
2.239246833E0,2.626140085E0,-3.181925242E0,2.416917354E-1,4.132756331E0
2.249183833E0,2.637176413E0,-3.001764342E0,-1.109725517E-1,3.997199457E0
2.259121833E0,2.632124711E0,-2.758603494E0,-3.977398878E-1,3.833558496E0
2.269059833E0,2.614666679E0,-2.565020017E0,-5.863283801E-1,3.709392201E0
2.278997833E0,2.615959791E0,-2.405237979E0,-8.058135599E-1,3.643864824E0
2.288934833E0,2.670716334E0,-2.220868107E0,-9.462291813E-1,3.600045909E0
2.298872833E0,2.740851347E0,-2.055168540E0,-9.181964600E-1,3.546698264E0
2.308810833E0,2.796992803E0,-1.941160699E0,-7.635656726E-1,3.489169835E0
2.318747833E0,2.777676819E0,-1.901682784E0,-5.540874177E-1,3.411583032E0
2.328685833E0,2.685728768E0,-1.935777167E0,-4.120649815E-1,3.336190913E0
2.338623833E0,2.516045201E0,-1.942352508E0,-3.562661719E-1,3.198459364E0
2.348560875E0,2.369047661E0,-1.906847191E0,-3.495430434E-1,3.061149028E0
2.358498875E0,2.289886009E0,-1.848791502E0,-3.605790782E-1,2.965067491E0
2.368436875E0,2.226873490E0,-1.800445846E0,-3.469556504E-1,2.884605520E0
2.378374875E0,2.168783887E0,-1.798906128E0,-2.571564513E-1,2.829455115E0
2.388311875E0,2.088138943E0,-1.814419961E0,-9.163580954E-2,2.767822458E0
2.398249875E0,1.994811388E0,-1.840192879E0,1.165636593E-1,2.716462662E0
2.408187875E0,1.858025279E0,-1.868634613E0,3.036400616E-1,2.652593173E0
2.418124875E0,1.691183459E0,-1.952847236E0,5.097778022E-1,2.633170566E0
2.428062875E0,1.510762650E0,-1.969562818E0,5.723529500E-1,2.547384811E0
2.438000875E0,1.360971603E0,-1.891694716E0,5.834486264E-1,2.402324895E0
2.447937875E0,1.195811734E0,-1.747444052E0,6.112147146E-1,2.203885171E0
2.457875875E0,1.048031545E0,-1.549204584E0,5.750999719E-1,1.956820109E0
2.467813875E0,8.711572181E-1,-1.364720253E0,4.602489620E-1,1.683212813E0
2.477751875E0,7.162883028E-1,-1.199379998E0,2.738753951E-1,1.423583170E0
2.487688875E0,5.819077389E-1,-9.925375213E-1,9.086690068E-2,1.154124838E0
2.497626875E0,5.183224116E-1,-7.542842411E-1,-2.852622628E-2,9.156509074E-1
2.507564875E0,4.453153194E-1,-5.588280478E-1,-1.046376783E-1,7.221797314E-1
2.517501875E0,4.019981226E-1,-3.689112143E-1,-8.440104961E-2,5.521064316E-1
2.527439875E0,3.958569382E-1,-2.013931637E-1,-2.409812987E-2,4.447950559E-1
2.537377875E0,3.528361952E-1,-1.555388600E-2,9.552011490E-2,3.658680040E-1
2.547314875E0,3.217632142E-1,1.655291203E-1,6.405332386E-2,3.674701130E-1
2.557252875E0,2.917121437E-1,3.110177860E-1,-1.005873120E-1,4.381162463E-1
2.567190875E0,3.042740094E-1,3.960567668E-1,-3.124190712E-1,5.891089130E-1
2.577128875E0,3.757611544E-1,5.035937870E-1,-4.255609399E-1,7.588842211E-1
2.587065875E0,5.207123148E-1,5.539516161E-1,-3.664075828E-1,8.439539232E-1
2.597003875E0,6.077894888E-1,4.218932739E-1,-2.594462210E-1,7.840372050E-1
2.606941875E0,6.111704220E-1,3.297702451E-1,-1.458418375E-1,7.096108376E-1
2.616878875E0,6.010405594E-1,3.486450572E-1,-1.142838299E-2,6.949343407E-1
2.626816875E0,6.190638708E-1,3.785643826E-1,9.924011350E-2,7.323931103E-1
2.636754875E0,5.681536259E-1,3.441801234E-1,1.304589826E-1,6.769623668E-1
2.646692875E0,5.218354918E-1,2.931198974E-1,1.645178443E-1,6.207235100E-1
2.656629875E0,4.629037441E-1,3.145249459E-1,1.692073113E-1,5.846682240E-1
2.666567875E0,4.613305508E-1,3.873090398E-1,1.307589447E-1,6.163863002E-1
2.676505875E0,4.284879099E-1,4.485768963E-1,6.711901903E-2,6.239616042E-1
2.686442875E0,3.375494174E-1,5.028299944E-1,2.037637711E-2,6.059643630E-1
2.696380875E0,3.286534269E-1,6.285246657E-1,1.514955103E-2,7.094264157E-1
2.706318875E0,4.283790420E-1,9.009863502E-1,-2.093829453E-2,9.978594185E-1
2.716255875E0,5.817859341E-1,1.219668959E0,-8.852976859E-2,1.354217398E0
2.726193875E0,6.675181389E-1,1.360195677E0,-2.206774271E-1,1.531147045E0
2.736131875E0,7.255193753E-1,1.206146103E0,-4.297118783E-1,1.471672207E0
2.746069875E0,7.541712436E-1,8.777660336E-1,-4.520365477E-1,1.242410767E0
2.756006875E0,7.089317746E-1,4.426124440E-1,-9.250938356E-2,8.408614765E-1
2.765944875E0,5.264517955E-1,5.633207560E-3,4.289084709E-1,6.790770960E-1
2.775882875E0,3.717049043E-1,-3.279561464E-1,9.230046254E-1,1.047691419E0
2.785819875E0,2.770842374E-1,-4.709268549E-1,1.227714728E0,1.343812200E0
2.795757875E0,1.421628699E-1,-4.092377065E-1,1.226261694E0,1.300539705E0
2.805695875E0,3.064939597E-2,-3.188928160E-1,8.218448710E-1,8.820776642E-1
2.815632875E0,-8.245085701E-2,-1.909840965E-1,8.372043371E-2,2.242368836E-1
2.825570875E0,-1.458838461E-1,-8.200281411E-2,-5.525800055E-1,5.773657598E-1
2.835508875E0,-1.958750914E-1,6.064147353E-2,-8.312413466E-1,8.561580555E-1
2.845446875E0,-2.187043938E-1,1.975497888E-1,-8.112304205E-1,8.631062078E-1
2.855383875E0,-2.754801269E-1,2.392085691E-1,-6.355783081E-1,7.328504797E-1
2.865321875E0,-3.810288013E-1,5.256325275E-2,-3.684383208E-1,5.326280496E-1
2.875259875E0,-4.359882430E-1,-2.315915474E-1,-1.059989101E-1,5.049318388E-1
2.885196875E0,-3.969883744E-1,-5.300802121E-1,8.912676930E-2,6.682277917E-1
2.895134875E0,-3.447550874E-1,-7.957933326E-1,2.562355149E-1,9.043228061E-1
2.905072875E0,-3.638133924E-1,-1.010106065E0,4.152604848E-1,1.151136707E0
2.915009875E0,-5.130974858E-1,-1.133863700E0,5.921416819E-1,1.378240796E0
2.924947875E0,-8.482802061E-1,-1.154377341E0,8.061983067E-1,1.643813269E0
2.934885875E0,-1.309815190E0,-1.072777838E0,1.036451719E0,1.985119716E0
2.944823875E0,-1.868150464E0,-9.268548708E-1,1.214003592E0,2.413058397E0
2.954760875E0,-2.433696232E0,-7.355718353E-1,1.254875629E0,2.835252390E0
2.964698875E0,-2.851848749E0,-5.237405147E-1,1.131526861E0,3.112506779E0
2.974636875E0,-3.028495473E0,-3.396780597E-1,8.934317476E-1,3.175749723E0
2.984573875E0,-2.917506841E0,-1.743069604E-1,5.568332702E-1,2.975280218E0
2.994511875E0,-2.584414062E0,-2.915684849E-2,8.703755915E-2,2.586043639E0
3.004449875E0,-2.186107287E0,9.805152074E-2,-4.374617779E-1,2.231603006E0
3.014386875E0,-1.798710393E0,1.578495334E-1,-9.165019369E-1,2.024907739E0
3.024324875E0,-1.521764478E0,2.450480372E-1,-1.305331253E0,2.019828049E0
3.034262875E0,-1.365332602E0,3.232931381E-1,-1.544221587E0,2.086449587E0
3.044200875E0,-1.321235533E0,4.198686755E-1,-1.622932711E0,2.134446913E0
3.054137875E0,-1.373202955E0,5.279848623E-1,-1.576832678E0,2.156584259E0
3.064075875E0,-1.485658214E0,6.309515525E-1,-1.440903041E0,2.163673211E0
3.074013875E0,-1.578895576E0,7.374004059E-1,-1.265628074E0,2.153714238E0
3.083950875E0,-1.627563414E0,8.089270560E-1,-1.107507668E0,2.128355911E0
3.093888875E0,-1.543928057E0,8.680517618E-1,-9.313181967E-1,2.001144995E0
3.103826875E0,-1.419101259E0,9.106545751E-1,-7.460760659E-1,1.843846424E0
3.113763875E0,-1.274460147E0,9.290316430E-1,-6.183331150E-1,1.694014256E0
3.123701875E0,-1.165909950E0,9.366577278E-1,-5.293987191E-1,1.586485649E0
3.133639875E0,-1.025203869E0,9.545399751E-1,-4.358918005E-1,1.467034832E0
3.143577875E0,-8.731993581E-1,9.712251511E-1,-2.670014083E-1,1.333058575E0
3.153514875E0,-7.633381429E-1,9.662782605E-1,-6.021755040E-2,1.232884808E0
3.163452875E0,-7.246979877E-1,9.537296972E-1,1.514937562E-1,1.207368157E0
3.173390875E0,-6.621349729E-1,9.185673197E-1,3.511387485E-1,1.185532397E0
3.183327875E0,-5.842478677E-1,8.802032992E-1,5.293607122E-1,1.181662466E0
3.193265875E0,-5.715275424E-1,7.880096653E-1,7.111132246E-1,1.205522701E0
3.203203875E0,-6.061599429E-1,7.052524142E-1,8.668526441E-1,1.271315992E0
3.213140875E0,-5.951271971E-1,6.012199228E-1,1.047769005E0,1.346648307E0
3.223078875E0,-6.060875105E-1,5.317740043E-1,1.268451110E0,1.503028236E0
3.233016875E0,-5.867981308E-1,5.222684781E-1,1.489415635E0,1.683881036E0
3.242954875E0,-5.366755790E-1,5.543088810E-1,1.629630697E0,1.803046095E0
3.252891875E0,-5.284933508E-1,5.554116659E-1,1.544360751E0,1.724191831E0
3.262829875E0,-4.521339038E-1,5.482767472E-1,1.280859486E0,1.464798102E0
3.272767875E0,-2.770633519E-1,5.294310249E-1,8.883189422E-1,1.070594159E0
3.282704875E0,-5.696430579E-2,5.339070685E-1,5.108934510E-1,7.411570739E-1
3.292642875E0,1.494841778E-1,6.242408493E-1,2.624306399E-1,6.934637684E-1
3.302580875E0,4.048147630E-1,8.103786273E-1,5.881714225E-2,9.077708787E-1
3.312517875E0,6.592451327E-1,1.110062463E0,-1.657907832E-1,1.301664089E0
3.322455875E0,8.161634240E-1,1.270840428E0,-3.652638674E-1,1.553890543E0
3.332393875E0,7.467017180E-1,1.024280886E0,-4.156423080E-1,1.333969009E0
3.342331875E0,4.734794569E-1,4.251348241E-1,5.884637833E-3,6.363623525E-1
3.352268708E0,1.164942602E-1,-1.687206767E-1,1.007557703E0,1.028207228E0
3.362206708E0,-1.334999733E-1,-6.106631760E-1,2.086095926E0,2.177734595E0
3.372144708E0,-2.084017825E-1,-9.354257195E-1,2.813647428E0,2.972383627E0
3.382081708E0,-1.175410762E-1,-1.084906572E0,2.848603252E0,3.050471875E0
3.392019708E0,1.372946152E-1,-1.006276432E0,2.067442723E0,2.303423860E0
3.401957708E0,5.697369788E-1,-7.116314341E-1,5.145953232E-1,1.046817974E0
3.411894708E0,1.006999440E0,-2.658423440E-1,-1.181253921E0,1.574827245E0
3.421832708E0,1.285013786E0,8.609133348E-2,-2.548092036E0,2.855073584E0
3.431770708E0,1.409803455E0,2.280229917E-1,-3.334411563E0,3.627373808E0
3.441708708E0,1.478539814E0,2.386745721E-1,-3.391753453E0,3.707699694E0
3.451645708E0,1.570835335E0,1.682729262E-1,-2.796534966E0,3.211922671E0
3.461583708E0,1.539738088E0,-6.578468442E-2,-1.637011637E0,2.248316727E0
3.471521708E0,1.335752854E0,-3.964277726E-1,-3.449775374E-1,1.435409408E0
3.481458708E0,1.232230678E0,-7.537232007E-1,6.928102702E-1,1.602022840E0
3.491396708E0,1.313515308E0,-1.060048888E0,1.361049371E0,2.168289995E0
3.501334708E0,1.378624201E0,-1.378382564E0,1.725108712E0,2.603179450E0
3.511271708E0,1.251107537E0,-1.661903965E0,1.802265646E0,2.752336519E0
3.521209708E0,1.063698720E0,-1.850132561E0,1.606445317E0,2.671163046E0
3.531147708E0,8.407832716E-1,-1.861632719E0,1.298905748E0,2.420691850E0
3.541084708E0,5.902008449E-1,-1.741109471E0,9.272812790E-1,2.059040990E0
3.551022708E0,4.255803454E-1,-1.494524640E0,4.738092399E-1,1.624566934E0
3.560960708E0,3.484603218E-1,-1.253680604E0,-4.956567764E-2,1.302150686E0
3.570898708E0,2.947844535E-1,-1.044205419E0,-5.932959223E-1,1.236633690E0
3.580835708E0,2.738331855E-1,-8.399861500E-1,-1.154322231E0,1.453623458E0
3.590773708E0,2.671106416E-1,-5.858608952E-1,-1.692245606E0,1.810601081E0
3.600711708E0,2.740358280E-1,-3.375097659E-1,-2.165119291E0,2.208336483E0
3.610648708E0,2.343966760E-1,-9.722209319E-2,-2.500347766E0,2.513191773E0
3.620586708E0,1.906609648E-1,4.137460560E-2,-2.648134972E0,2.655312089E0
3.630524708E0,1.903744512E-1,1.896667188E-1,-2.602521427E0,2.616358858E0
3.640461708E0,2.273391964E-1,2.855060917E-1,-2.398257135E0,2.425867705E0
3.650399708E0,2.815881649E-1,3.342471658E-1,-2.046198619E0,2.092353185E0
3.660337708E0,2.935786480E-1,3.349937090E-1,-1.580191904E0,1.641772110E0
3.670275708E0,2.559450910E-1,2.945499802E-1,-1.148000806E0,1.212507085E0
3.680212708E0,1.554954444E-1,2.096867082E-1,-7.678510970E-1,8.110133513E-1
3.690150708E0,1.569147829E-2,1.597810149E-1,-4.019475442E-1,4.328256272E-1
3.700088708E0,-1.135185390E-1,2.092554760E-1,-2.573885858E-2,2.394510426E-1
3.710025708E0,-2.647853136E-1,2.982815270E-1,3.170728701E-1,5.095275622E-1
3.719963708E0,-3.554431032E-1,4.319292887E-1,5.480899286E-1,7.831380976E-1
3.729901708E0,-3.942856452E-1,5.006799732E-1,6.822618932E-1,9.336074638E-1
3.739838708E0,-4.408958111E-1,5.410145053E-1,7.194092542E-1,1.002315063E0
3.749776708E0,-4.784004370E-1,5.160315455E-1,6.840809619E-1,9.813879440E-1
3.759714708E0,-4.896546096E-1,4.888289827E-1,5.922942942E-1,9.107842456E-1
3.769652708E0,-4.033398394E-1,5.229068479E-1,5.449236614E-1,8.561871257E-1
3.779589708E0,-2.687286758E-1,5.821185310E-1,5.382794702E-1,8.371510458E-1
3.789527708E0,-1.615748310E-1,6.308142892E-1,5.530091912E-1,8.543139112E-1
3.799465708E0,-1.236512339E-1,6.223916674E-1,6.682911408E-1,9.215606676E-1
3.809402708E0,-1.466611603E-1,6.054157385E-1,8.605967081E-1,1.062386185E0
3.819340708E0,-2.386024686E-1,5.437692748E-1,1.078897827E0,1.231518040E0
3.829278708E0,-3.189908300E-1,4.655576491E-1,1.275698149E0,1.394956931E0
3.839215708E0,-4.246452294E-1,4.194203402E-1,1.390827486E0,1.513485411E0
3.849153708E0,-3.914876794E-1,5.670296448E-1,1.300917190E0,1.472131365E0
3.859091708E0,-1.547360190E-1,1.073586947E0,8.557914662E-1,1.381633527E0
3.869028708E0,2.861183317E-2,1.437828867E0,1.915401667E-1,1.450812918E0
3.878966708E0,6.963200614E-2,1.415019025E0,-4.658318835E-1,1.491350663E0
3.888904708E0,4.298151182E-2,1.277633285E0,-8.770303077E-1,1.550282678E0
3.898842708E0,-1.479325095E-1,1.138490894E0,-8.441373807E-1,1.424995951E0
3.908779708E0,-4.265256939E-1,9.670701197E-1,-2.377530509E-1,1.083362957E0
3.918717708E0,-6.645517002E-1,6.171361899E-1,7.787760347E-1,1.195398742E0
3.928655708E0,-7.479169887E-1,1.377318956E-1,1.885714769E0,2.033290458E0
3.938592708E0,-6.144096333E-1,-2.018616718E-1,2.736954762E0,2.812324431E0
3.948530708E0,-3.434353343E-1,-4.230302650E-1,3.115101215E0,3.162397511E0
3.958468708E0,-7.415639888E-2,-5.866197176E-1,3.149413846E0,3.204439021E0
3.968405708E0,7.623004083E-2,-7.316040610E-1,2.887115938E0,2.979344552E0
3.978343708E0,1.583249486E-1,-7.906175235E-1,2.305987487E0,2.442891964E0
3.988281708E0,1.930509411E-1,-7.496042758E-1,1.490907844E0,1.679875423E0
3.998218708E0,1.413563836E-1,-7.723313798E-1,6.263221657E-1,1.004368878E0
4.008156708E0,9.704368003E-2,-8.031888910E-1,-6.805457354E-2,8.118874894E-1
4.018094708E0,1.949520902E-1,-7.775745781E-1,-5.964206743E-1,9.991727392E-1
4.028032708E0,3.650619923E-1,-6.815304065E-1,-1.003440093E0,1.266746215E0
4.037969708E0,5.556825747E-1,-5.652621777E-1,-1.405565393E0,1.613666176E0
4.047907708E0,7.036815597E-1,-4.633867241E-1,-1.752518705E0,1.944535112E0
4.057845708E0,7.425854974E-1,-3.583432491E-1,-1.961676532E0,2.127913984E0
4.067782708E0,7.349290071E-1,-2.983325440E-1,-2.051375744E0,2.199378411E0
4.077720708E0,7.278915176E-1,-1.997101888E-1,-1.980995733E0,2.119918469E0
4.087658708E0,6.895532249E-1,-6.796628058E-2,-1.826950836E0,1.953932553E0
4.097595708E0,6.844120605E-1,3.269134417E-2,-1.625297910E0,1.763825924E0
4.107533708E0,6.128831811E-1,1.053218025E-1,-1.509289151E0,1.632382375E0
4.117471708E0,5.400632364E-1,1.726918133E-1,-1.388540055E0,1.499844741E0
4.127409708E0,4.510154045E-1,2.317043987E-1,-1.267590984E0,1.365243102E0
4.137346708E0,4.632358660E-1,2.738473284E-1,-1.148949809E0,1.268725932E0
4.147284708E0,6.152141371E-1,2.757646304E-1,-1.040543016E0,1.239864643E0
4.157222708E0,8.758189107E-1,2.653945935E-1,-9.547865814E-1,1.322539402E0
4.167159708E0,1.153635475E0,2.555722944E-1,-9.316742921E-1,1.504728877E0
4.177097708E0,1.460951535E0,2.720783995E-1,-9.008208740E-1,1.737781428E0
4.187035708E0,1.665789878E0,2.886913624E-1,-8.815244776E-1,1.906642081E0
4.196972708E0,1.808824321E0,3.289310235E-1,-8.511856145E-1,2.025970877E0
4.206910708E0,1.846176335E0,4.129568280E-1,-8.095686418E-1,2.057741915E0
4.216848708E0,1.763040038E0,4.813579953E-1,-7.811213529E-1,1.987502519E0
4.226785708E0,1.589507980E0,5.302560671E-1,-7.448516589E-1,1.833715111E0
4.236723708E0,1.437333900E0,5.237488469E-1,-6.642015982E-1,1.667754586E0
4.246661708E0,1.344914418E0,5.381828450E-1,-5.660443890E-1,1.555262620E0
4.256599708E0,1.253023231E0,5.147058356E-1,-4.076836628E-1,1.414636096E0
4.266536708E0,1.177278253E0,4.397043313E-1,-2.227128428E-1,1.276293460E0
4.276474708E0,1.117628468E0,3.161971034E-1,-3.757420778E-3,1.161502526E0
4.286412708E0,1.132083150E0,1.663839832E-1,1.984995228E-1,1.161334555E0
4.296349708E0,1.185582469E0,5.752768502E-2,3.495874822E-1,1.237387018E0
4.306287708E0,1.278580826E0,-2.349089652E-2,4.321115756E-1,1.349830050E0
4.316225708E0,1.416661946E0,-6.985303089E-2,5.220891148E-1,1.511419055E0
4.326162708E0,1.571714903E0,-9.867337212E-2,5.910880136E-1,1.682084781E0
4.336100708E0,1.682904094E0,-1.303100248E-1,6.492683941E-1,1.808506660E0
4.346038708E0,1.784642723E0,-1.090242594E-1,7.345506191E-1,1.932977121E0
4.355975833E0,1.844868167E0,-6.866502285E-2,8.146440250E-1,2.017894528E0
4.365913833E0,1.886040751E0,6.340822980E-2,9.322479039E-1,2.104817444E0
4.375851833E0,1.978244325E0,3.261635363E-1,1.067998617E0,2.271663335E0
4.385789833E0,2.051314494E0,5.372969918E-1,1.248167118E0,2.460589435E0
4.395726833E0,1.967710274E0,4.078506008E-1,1.386932071E0,2.441681061E0
4.405664833E0,1.737952706E0,-5.379526109E-2,1.591943638E0,2.357468575E0
4.415602833E0,1.387153096E0,-5.747858302E-1,2.107023110E0,2.587299528E0
4.425539833E0,1.082607300E0,-1.061732594E0,2.979933470E0,3.343548736E0
4.435477833E0,8.997135575E-1,-1.421873131E0,3.979180525E0,4.320310792E0
4.445415833E0,8.475062540E-1,-1.590938940E0,4.709932793E0,5.043096318E0
4.455352833E0,9.582018670E-1,-1.535421381E0,4.792100206E0,5.122489045E0
4.465290833E0,1.178431105E0,-1.295018811E0,4.026975081E0,4.391161793E0
4.475228833E0,1.558999255E0,-1.006655916E0,2.544492490E0,3.149329586E0
4.485165833E0,1.884199170E0,-7.862505305E-1,1.039336735E0,2.290986089E0
4.495103833E0,2.060073477E0,-6.526999788E-1,-1.742762625E-2,2.161070039E0
4.505041833E0,2.171581926E0,-6.851245438E-1,-4.492158508E-1,2.320982245E0
4.514979833E0,2.143183315E0,-8.297587851E-1,-1.838189185E-1,2.305541966E0
4.524916833E0,1.844414130E0,-1.051366066E0,7.036083233E-1,2.236581937E0
4.534854833E0,1.439583324E0,-1.333270857E0,1.615018505E0,2.541317787E0
4.544792833E0,1.154651795E0,-1.621248713E0,2.055741860E0,2.861423204E0
4.554729833E0,1.017957487E0,-1.839222680E0,2.015884899E0,2.912519431E0
4.564667833E0,9.942410345E-1,-1.932034511E0,1.588375082E0,2.691506639E0
4.574605833E0,1.044961756E0,-1.871482061E0,8.138815480E-1,2.292769799E0
4.584542833E0,1.158776420E0,-1.721233908E0,-1.570655680E-1,2.080884079E0
4.594480833E0,1.187315730E0,-1.548180737E0,-1.102317095E0,2.240911693E0
4.604418833E0,1.240631227E0,-1.337861506E0,-1.920696906E0,2.649172674E0
4.614355833E0,1.236050518E0,-1.100457096E0,-2.604494278E0,3.085808994E0
4.624293833E0,1.215829531E0,-8.343779393E-1,-3.078966007E0,3.413862866E0
4.634231833E0,1.183299351E0,-6.488988501E-1,-3.367368225E0,3.627731499E0
4.644169833E0,1.158570014E0,-5.146182735E-1,-3.501930199E0,3.724329679E0
4.654106833E0,1.215226610E0,-4.237855791E-1,-3.416333393E0,3.650712778E0
4.664044833E0,1.340093242E0,-2.836403914E-1,-3.198433394E0,3.479407700E0
4.673982833E0,1.558089136E0,-1.824508162E-1,-2.959561186E0,3.349616765E0
4.683919833E0,1.844843024E0,-1.596232863E-1,-2.678833439E0,3.256543254E0
4.693857833E0,2.090419942E0,-1.801559302E-1,-2.384758837E0,3.176379449E0
4.703795833E0,2.244281966E0,-2.021889697E-1,-2.108663254E0,3.086120970E0
4.713732833E0,2.312825806E0,-1.567264295E-1,-1.845466629E0,2.963017627E0
4.723670833E0,2.254410952E0,-6.794391498E-2,-1.566547426E0,2.746098314E0
4.733608833E0,2.126267759E0,5.961221740E-2,-1.279638587E0,2.482346292E0
4.743545833E0,1.901065464E0,1.872908489E-1,-1.009655099E0,2.160678407E0
4.753483833E0,1.599079580E0,2.782841957E-1,-7.587107295E-1,1.791686236E0
4.763421833E0,1.294059283E0,3.870611179E-1,-4.848891288E-1,1.435103900E0
4.773358833E0,9.762568264E-1,4.480123477E-1,-1.781067735E-1,1.088813335E0
4.783296833E0,7.780017903E-1,4.486821462E-1,1.529543906E-1,9.110419857E-1
4.793234833E0,7.064131596E-1,4.158791202E-1,5.217043680E-1,9.716740412E-1
4.803172833E0,7.379014391E-1,3.755975054E-1,8.326856089E-1,1.174281629E0
4.813109833E0,8.414074619E-1,3.326814276E-1,1.102960873E0,1.426592492E0
4.823047833E0,9.557695714E-1,2.825156794E-1,1.382347854E0,1.704170230E0
4.832985833E0,1.032215046E0,2.355224843E-1,1.679943649E0,1.985736489E0
4.842922833E0,1.052633157E0,2.081285714E-1,1.915301095E0,2.195388884E0
4.852860833E0,1.025227184E0,2.127376391E-1,2.101569997E0,2.347966042E0
4.862798833E0,9.487150519E-1,2.501310217E-1,2.141652076E0,2.355695097E0
4.872735833E0,8.207128501E-1,5.060374846E-1,1.990941846E0,2.212124082E0
4.882673833E0,8.019889692E-1,1.121900297E0,1.657457596E0,2.156156828E0
4.892611833E0,6.463602814E-1,1.477241147E0,1.144124102E0,1.977129986E0
4.902548833E0,1.630945589E-1,1.063744183E0,6.428311944E-1,1.253548350E0
4.912486833E0,-4.034798802E-1,1.466475838E-1,6.611201155E-1,7.882774478E-1
4.922424833E0,-6.852201457E-1,-6.601358829E-1,1.584051066E0,1.847843016E0
4.932362833E0,-6.219398238E-1,-1.169188046E0,3.010388693E0,3.288806761E0
4.942299833E0,-3.542577264E-1,-1.498293170E0,4.436678957E0,4.696222006E0
4.952237833E0,-9.668261446E-2,-1.746960926E0,5.269941686E0,5.552792575E0
4.962175833E0,1.653095573E-2,-1.916222032E0,4.989509808E0,5.344846889E0
4.972112833E0,6.391832627E-2,-1.946305079E0,3.593794050E0,4.087486353E0
4.982050833E0,6.255197816E-2,-1.838612815E0,1.797738147E0,2.572211554E0
4.991988833E0,4.091004431E-3,-1.564986804E0,3.159923047E-1,1.596574950E0
5.001925833E0,3.526020873E-2,-1.203700067E0,-6.093365890E-1,1.349602983E0
5.011863833E0,1.538047037E-1,-9.115266873E-1,-9.944119924E-1,1.357715728E0
5.021801833E0,1.827714811E-1,-7.902728301E-1,-9.941400969E-1,1.283063168E0
5.031738833E0,1.832096569E-1,-9.217791952E-1,-8.494554234E-1,1.266813790E0
5.041676833E0,2.108069250E-1,-1.121198631E0,-7.611928725E-1,1.371473849E0
5.051614833E0,2.760660544E-1,-1.261019006E0,-7.370222372E-1,1.486466676E0
5.061552833E0,3.653004490E-1,-1.252513354E0,-7.397026008E-1,1.499798005E0
5.071489833E0,4.031309841E-1,-1.110974336E0,-7.476746947E-1,1.398497771E0
5.081427833E0,2.784199972E-1,-8.773422566E-1,-8.016918576E-1,1.220637933E0
5.091365833E0,1.161224138E-2,-5.878990884E-1,-8.917851716E-1,1.068195195E0
5.101302833E0,-2.748312686E-1,-2.781624274E-1,-1.002375315E0,1.075947413E0
5.111240833E0,-5.298869981E-1,-9.477459490E-3,-1.199291412E0,1.311171211E0
5.121178833E0,-7.472260670E-1,2.114446735E-1,-1.446049175E0,1.641375601E0
5.131115833E0,-8.486505541E-1,4.273681681E-1,-1.662527132E0,1.914901506E0
5.141053833E0,-8.050257938E-1,6.259928213E-1,-1.862525296E0,2.123425068E0
5.150991833E0,-6.062505016E-1,7.823084839E-1,-1.988128751E0,2.220856178E0
5.160928833E0,-2.965558309E-1,8.207748306E-1,-2.037777459E0,2.216789042E0
5.170866833E0,8.344576076E-2,8.098269425E-1,-1.981871645E0,2.142568106E0
5.180804833E0,4.757855988E-1,7.861929354E-1,-1.837339584E0,2.054333959E0
5.190741833E0,8.211306337E-1,7.479270020E-1,-1.595395834E0,1.943949121E0
5.200679833E0,1.071546049E0,6.640877236E-1,-1.307639734E0,1.816354897E0
5.210617833E0,1.243529107E0,6.014478180E-1,-1.042952068E0,1.730853297E0
5.220555833E0,1.293461990E0,5.707405803E-1,-8.156398058E-1,1.632193929E0
5.230492833E0,1.295310002E0,5.953371853E-1,-7.180363280E-1,1.596192512E0
5.240430833E0,1.259018089E0,6.337199168E-1,-7.474834907E-1,1.595449482E0
5.250368833E0,1.200119743E0,7.096720321E-1,-8.436982548E-1,1.629646752E0
5.260305833E0,1.142732318E0,7.615777655E-1,-9.398872912E-1,1.664099145E0
5.270243833E0,1.129967262E0,7.853059128E-1,-9.891834122E-1,1.694702101E0
5.280181833E0,1.115969539E0,7.531877419E-1,-9.249201733E-1,1.633449453E0
5.290118833E0,1.104169493E0,6.811132076E-1,-7.033779430E-1,1.475752690E0
5.300056833E0,1.091852698E0,5.141896726E-1,-3.726243424E-1,1.263084413E0
5.309994833E0,1.071849008E0,2.597400436E-1,6.779963493E-2,1.104953382E0
5.319931833E0,1.111401037E0,4.073784381E-2,6.222443175E-1,1.274386059E0
5.329869833E0,1.157612240E0,-1.055910668E-1,1.204431700E0,1.673879114E0
5.339807833E0,1.145407566E0,-1.704866821E-1,1.681794877E0,2.041925123E0
5.349744625E0,1.055150968E0,-2.234446219E-1,1.983681943E0,2.257933816E0
5.359682625E0,8.777123123E-1,-2.266275537E-1,2.097811407E0,2.285290277E0
5.369620625E0,6.899617991E-1,-5.188731462E-2,2.091696389E0,2.203164397E0
5.379558625E0,7.007500581E-1,4.312498422E-1,1.929612740E0,2.097720763E0
5.389495625E0,8.381614532E-1,1.197503626E0,1.661543630E0,2.212974648E0
5.399433625E0,8.451427364E-1,1.778748583E0,1.467027816E0,2.455683892E0
5.409371625E0,5.282890637E-1,1.644053877E0,1.612328786E0,2.362542402E0
5.419308625E0,5.066404056E-2,8.407980359E-1,2.308298891E0,2.457183744E0
5.429246625E0,-3.920389622E-1,-4.213854432E-2,3.357065431E0,3.380141789E0
5.439184625E0,-6.203147364E-1,-6.370449360E-1,4.406800854E0,4.495610124E0
5.449121625E0,-4.842753539E-1,-8.535379493E-1,4.947683505E0,5.044067973E0
5.459059625E0,-1.465114899E-1,-7.721482158E-1,4.511059048E0,4.579009961E0
5.468997625E0,3.527672346E-1,-5.477947904E-1,2.948988250E0,3.020108534E0
5.478934625E0,7.823491951E-1,-2.960484754E-1,1.004474466E0,1.307166369E0
5.488872625E0,1.052818806E0,-1.409561965E-1,-5.621144754E-1,1.201777339E0
5.498810625E0,1.239594223E0,-1.458691733E-1,-1.401254241E0,1.876535398E0
5.508747625E0,1.387255422E0,-2.574122670E-1,-1.331675298E0,1.940128290E0
5.518685625E0,1.431231746E0,-4.977335612E-1,-4.690151078E-1,1.586233961E0
5.528623625E0,1.297584569E0,-7.936903815E-1,6.652213526E-1,1.660177576E0
5.538561625E0,1.051157612E0,-1.115059201E0,1.465654889E0,2.120479569E0
5.548498625E0,8.495929060E-1,-1.424607728E0,1.566553273E0,2.281535545E0
5.558436625E0,7.338184746E-1,-1.690920627E0,1.034758365E0,2.113865415E0
5.568374625E0,7.035373528E-1,-1.900399028E0,2.368192506E-1,2.040236415E0
5.578311625E0,7.044911067E-1,-1.973808189E0,-5.438360792E-1,2.165175320E0
5.588249625E0,6.826071712E-1,-1.949449566E0,-1.176063933E0,2.376853494E0
5.598187625E0,5.748616613E-1,-1.890231743E0,-1.664936185E0,2.583690088E0
5.608124625E0,4.054272588E-1,-1.800611469E0,-2.030024636E0,2.743642277E0
5.618062625E0,2.413133840E-1,-1.625885701E0,-2.276644405E0,2.807996832E0
5.628000625E0,5.078361612E-2,-1.421327147E0,-2.434441459E0,2.819442330E0
5.637937625E0,-1.192573985E-1,-1.245527978E0,-2.585848677E0,2.872660030E0
5.647875625E0,-2.366402527E-1,-1.083546363E0,-2.716441560E0,2.934131231E0
5.657813625E0,-3.056935489E-1,-9.273980771E-1,-2.863192055E0,3.025125532E0
5.667750625E0,-3.360938261E-1,-7.853984450E-1,-2.964418468E0,3.085058610E0
5.677688625E0,-3.133049609E-1,-6.409232479E-1,-3.029748824E0,3.112606712E0
5.687626625E0,-2.795136093E-1,-4.636985269E-1,-3.050124616E0,3.097806378E0
5.697563625E0,-1.827802702E-1,-3.307185173E-1,-2.988563960E0,3.012357533E0
5.707501625E0,-1.337693106E-1,-2.452760786E-1,-2.769374065E0,2.783430850E0
5.717439625E0,-1.309138960E-1,-1.808546725E-1,-2.336567840E0,2.347210287E0
5.727377625E0,-1.721390321E-1,-1.443496281E-1,-1.800581063E0,1.814541492E0
5.737314625E0,-1.503458747E-1,-1.306709442E-1,-1.204001344E0,1.220367983E0
5.747252625E0,-1.241055808E-1,-1.549661252E-1,-6.940218133E-1,7.218607708E-1
5.757190625E0,-1.654911134E-1,-1.869802156E-1,-3.794521362E-1,4.542387404E-1
5.767127625E0,-2.735242698E-1,-1.690128914E-1,-2.707067889E-1,4.203130371E-1
5.777065625E0,-3.484067101E-1,-6.543414384E-2,-2.898593438E-1,4.579162609E-1
5.787003625E0,-3.942294388E-1,7.309882030E-2,-3.863571131E-1,5.568052683E-1
5.796940625E0,-3.967221069E-1,2.129482850E-1,-4.462624222E-1,6.339444389E-1
5.806878625E0,-3.397864524E-1,3.014469172E-1,-4.345282298E-1,6.286015110E-1
5.816816625E0,-2.257706442E-1,3.729124640E-1,-3.816273004E-1,5.793750823E-1
5.826753625E0,-7.451925516E-2,3.651922390E-1,-2.342225021E-1,4.402029887E-1
5.836691625E0,8.237754755E-2,3.029743561E-1,5.973047733E-2,3.196048353E-1
5.846629625E0,2.302452260E-1,1.808606659E-1,5.037411368E-1,5.826479018E-1
5.856566625E0,3.445273749E-1,3.967438146E-2,1.045967478E0,1.101962401E0
5.866504625E0,3.001016922E-1,-8.618503511E-2,1.580696518E0,1.611238769E0
5.876442625E0,8.168041326E-2,-2.055442482E-1,2.002825727E0,2.015001494E0
5.886379625E0,-9.664519228E-2,-2.122838952E-1,2.138802727E0,2.151483640E0
5.896317625E0,-7.931938067E-2,1.757597011E-1,1.945367478E0,1.954900934E0
5.906255625E0,7.537638389E-2,8.731479026E-1,1.365162302E0,1.622262917E0
5.916193625E0,1.017181635E-1,1.151999863E0,6.509073687E-1,1.327075986E0
5.926130625E0,-1.502055415E-1,9.940934654E-1,7.192367613E-2,1.007946694E0
5.936068625E0,-5.554916266E-1,6.124174869E-1,-1.800965810E-1,8.462038194E-1
5.946006625E0,-9.176324961E-1,2.629384705E-1,3.358541268E-1,1.011920961E0
5.955943625E0,-1.097217299E0,3.747480512E-3,1.648689696E0,1.980423581E0
5.965881625E0,-1.019363231E0,-3.079482901E-1,3.149185805E0,3.324350279E0
5.975819625E0,-8.144227809E-1,-6.568962331E-1,4.502271852E0,4.622255830E0
5.985756625E0,-5.898560784E-1,-9.921452462E-1,5.334535877E0,5.457980891E0
5.995694625E0,-4.533466163E-1,-1.273340990E0,5.535926848E0,5.698544244E0
6.005632625E0,-3.531634931E-1,-1.449404161E0,5.101920190E0,5.315551382E0
6.015569625E0,-2.758598304E-1,-1.470665953E0,4.114116136E0,4.377774386E0
6.025507625E0,-1.735197059E-1,-1.273848967E0,2.916135669E0,3.186949563E0
6.035445625E0,-2.329722578E-1,-9.882920042E-1,1.809812062E0,2.075190801E0
6.045382625E0,-4.175062176E-1,-7.443314029E-1,8.867045259E-1,1.230685011E0
6.055320625E0,-6.010548485E-1,-5.986456861E-1,1.022537684E-1,8.544585546E-1
6.065258625E0,-6.905105603E-1,-5.184473227E-1,-5.158624148E-1,1.005836215E0
6.075196625E0,-6.751554796E-1,-4.388925916E-1,-9.868655759E-1,1.273721042E0
6.085133625E0,-5.564183006E-1,-3.201486517E-1,-1.393380965E0,1.534146994E0
6.095071625E0,-4.754738691E-1,-1.554458892E-1,-1.731916625E0,1.802712961E0
6.105009625E0,-4.927855743E-1,4.533536330E-2,-2.008626165E0,2.068688471E0
6.114946625E0,-5.492343384E-1,2.151724197E-1,-2.205427657E0,2.282951747E0
6.124884625E0,-6.133279715E-1,3.232598090E-1,-2.342820268E0,2.443250890E0
6.134822625E0,-6.472193836E-1,3.626333512E-1,-2.360645505E0,2.474478344E0
6.144759625E0,-5.626588511E-1,3.667040366E-1,-2.323781734E0,2.418887839E0
6.154697625E0,-4.689719114E-1,3.705373250E-1,-2.248297103E0,2.326386130E0
6.164635625E0,-4.193207914E-1,4.067070316E-1,-2.200694336E0,2.276904938E0
6.174572625E0,-3.350221777E-1,4.583936405E-1,-2.179252011E0,2.251999982E0
6.184510625E0,-2.425974691E-1,5.119979900E-1,-2.164987729E0,2.237893505E0
6.194448625E0,-9.965245184E-2,5.668176833E-1,-2.181865717E0,2.256490838E0
6.204385625E0,1.403511193E-1,5.912536360E-1,-2.189344305E0,2.272115267E0
6.214323625E0,4.543267924E-1,6.285113633E-1,-2.150103641E0,2.285691369E0
6.224261625E0,8.276096410E-1,6.639177158E-1,-1.954297931E0,2.223736687E0
6.234198625E0,1.108504034E0,6.438252211E-1,-1.635681396E0,2.078159218E0
6.244136625E0,1.230480753E0,6.052774519E-1,-1.308571780E0,1.895469277E0
6.254074625E0,1.284227482E0,6.014818780E-1,-1.088294887E0,1.787569981E0
6.264011625E0,1.325588054E0,5.877765892E-1,-8.931861645E-1,1.703069738E0
6.273949625E0,1.340846948E0,6.152672736E-1,-6.846206599E-1,1.626385503E0
6.283887625E0,1.302812126E0,6.070409721E-1,-5.976497591E-1,1.556599953E0
6.293825625E0,1.229584959E0,5.919620262E-1,-5.849794275E-1,1.484755584E0
6.303762625E0,1.136083596E0,5.812044650E-1,-5.887163830E-1,1.405372387E0
6.313700625E0,1.098251672E0,5.979938677E-1,-6.040132838E-1,1.388735197E0
6.323638625E0,1.042506511E0,6.093965229E-1,-5.989308840E-1,1.347925128E0
6.333575625E0,1.002508413E0,6.367221697E-1,-5.445558715E-1,1.306514193E0
6.343513625E0,1.024709560E0,6.320560916E-1,-3.386069959E-1,1.250671532E0
6.353451625E0,1.088978134E0,6.051024739E-1,-3.976515949E-2,1.246436380E0
6.363388625E0,1.096875676E0,5.811388300E-1,2.868614763E-1,1.274028294E0
6.373326625E0,1.041944301E0,5.488772562E-1,5.921440208E-1,1.318161109E0
6.383264625E0,9.798128106E-1,5.686219878E-1,8.646751410E-1,1.425141119E0
6.393201625E0,9.117373332E-1,6.476706424E-1,1.099803962E0,1.568537848E0
6.403139625E0,8.253928153E-1,7.534570062E-1,1.319813637E0,1.729415738E0
6.413077625E0,6.637903927E-1,7.846806993E-1,1.492846196E0,1.812437930E0
6.423014625E0,4.637402249E-1,7.753445962E-1,1.648873883E0,1.880159388E0
6.432952625E0,3.073516914E-1,8.352357258E-1,1.709362745E0,1.927175335E0
6.442890625E0,3.354857522E-1,1.216634254E0,1.579310144E0,2.021625615E0
6.452827625E0,5.829202208E-1,1.729424688E0,1.182292972E0,2.174516591E0
6.462765625E0,8.012000336E-1,1.927828462E0,7.095660514E-1,2.204978017E0
6.472703625E0,8.783551405E-1,1.741746671E0,3.724430788E-1,1.985926249E0
6.482640625E0,8.011191228E-1,1.331246405E0,3.055503470E-1,1.583467668E0
6.492578625E0,5.392679420E-1,6.676780602E-1,9.944084841E-1,1.313564669E0
6.502516625E0,2.484637613E-1,-9.138306364E-2,2.472260665E0,2.486394559E0
6.512454625E0,1.156137426E-1,-7.819117503E-1,4.002672883E0,4.079968472E0
6.522391625E0,5.318166889E-2,-1.322876408E0,5.174939049E0,5.341612532E0
6.532329625E0,-8.867192902E-3,-1.612296041E0,5.721290601E0,5.944135201E0
6.542267625E0,5.925729141E-2,-1.616541412E0,5.242169750E0,5.486078860E0
6.552204625E0,2.900078265E-1,-1.399979548E0,3.759103607E0,4.021803974E0
6.562142625E0,5.872499013E-1,-1.122371729E0,1.838247072E0,2.232427612E0
6.572080625E0,7.977635519E-1,-8.512478873E-1,2.318380076E-1,1.189453031E0
6.582017625E0,8.915127645E-1,-6.445676713E-1,-7.802343303E-1,1.348713499E0
6.591955625E0,8.725437391E-1,-5.732566372E-1,-1.141811528E0,1.547155233E0
6.601893625E0,7.648834889E-1,-6.556408359E-1,-9.195623696E-1,1.364003889E0
6.611830625E0,5.390286813E-1,-8.627500914E-1,-2.868562138E-1,1.056965528E0
6.621768625E0,2.427338919E-1,-1.105664187E0,2.767352682E-1,1.165330617E0
6.631706625E0,3.834519971E-2,-1.336690894E0,4.654886520E-1,1.415942296E0
6.641643625E0,-1.214385926E-1,-1.509021641E0,2.781894708E-1,1.539247552E0
6.651581625E0,-2.205673532E-1,-1.627965994E0,-2.382775462E-1,1.660029947E0
6.661519625E0,-3.104997227E-1,-1.658817658E0,-8.523421937E-1,1.890654203E0
6.671456625E0,-3.717783965E-1,-1.616467006E0,-1.428774161E0,2.189196282E0
6.681394625E0,-4.073205141E-1,-1.576930619E0,-1.913088509E0,2.512474442E0
6.691332625E0,-4.542973005E-1,-1.536124655E0,-2.287151266E0,2.792333417E0
6.701269625E0,-4.838869160E-1,-1.467670571E0,-2.557977923E0,2.988553916E0
6.711207625E0,-5.414986182E-1,-1.391381071E0,-2.789486148E0,3.163920828E0
6.721145625E0,-6.125525210E-1,-1.324111632E0,-2.950661139E0,3.291639920E0
6.731083625E0,-6.375581022E-1,-1.232638083E0,-3.076514854E0,3.375028982E0
6.741020625E0,-6.357334786E-1,-1.158681476E0,-3.140865802E0,3.407600006E0
6.750958625E0,-5.570679628E-1,-1.071733818E0,-3.144294024E0,3.368311595E0
6.760896625E0,-4.768272802E-1,-9.127293134E-1,-3.103665231E0,3.270042342E0
6.770833625E0,-4.305048338E-1,-7.716456476E-1,-3.170988318E0,3.291798646E0
6.780771625E0,-4.215827867E-1,-6.726248047E-1,-3.295569679E0,3.389828268E0
6.790709625E0,-4.795237237E-1,-5.971371044E-1,-3.306665940E0,3.394194362E0
6.800646625E0,-5.941866725E-1,-5.028074826E-1,-3.202329394E0,3.295570772E0
6.810584625E0,-6.506772807E-1,-3.613229902E-1,-3.053662766E0,3.143054488E0
6.820522625E0,-6.489736214E-1,-1.982156405E-1,-2.804129330E0,2.885064557E0
6.830459625E0,-7.021031769E-1,-1.037041703E-1,-2.423848643E0,2.525617879E0
6.840397625E0,-7.440807766E-1,-3.601124704E-2,-1.963651137E0,2.100209227E0
6.850335625E0,-8.026015382E-1,8.679738477E-2,-1.524686624E0,1.725216600E0
6.860272625E0,-9.270451245E-1,2.342723496E-1,-1.125151641E0,1.476571168E0
6.870210625E0,-9.669218197E-1,3.608248074E-1,-8.807783729E-1,1.356798765E0
6.880148625E0,-9.703031914E-1,3.890953642E-1,-7.589112890E-1,1.291831967E0
6.890085625E0,-9.389423081E-1,4.597431779E-1,-6.740097177E-1,1.243891292E0
6.900023625E0,-8.241913587E-1,5.841673954E-1,-5.979538143E-1,1.173921507E0
6.909961625E0,-6.617979540E-1,6.928503236E-1,-4.185571450E-1,1.045565965E0
6.919898625E0,-5.220091541E-1,7.258936702E-1,-9.116861701E-2,8.987362762E-1
6.929836625E0,-4.727405881E-1,6.518856078E-1,3.481180769E-1,8.772825684E-1
6.939774625E0,-4.824949133E-1,5.184564590E-1,8.400495923E-1,1.098763741E0
6.949711625E0,-4.830262790E-1,3.655196831E-1,1.381587716E0,1.508543550E0
6.959649625E0,-4.558404538E-1,1.919101493E-1,1.931718907E0,1.994030582E0
6.969587625E0,-4.286391335E-1,8.054071784E-2,2.446414218E0,2.484987090E0
6.979524625E0,-2.498122754E-1,3.775317644E-1,2.768433833E0,2.805202718E0
6.989462625E0,1.152946673E-2,8.601231567E-1,2.681072338E0,2.815687066E0
6.999400625E0,1.682213245E-1,1.062598640E0,2.347333149E0,2.582128423E0
7.009338625E0,5.061020963E-2,8.894467239E-1,2.032861705E0,2.219505255E0
7.019275625E0,-2.581443384E-1,4.885201766E-1,2.306384513E0,2.371644995E0
7.029213625E0,-5.191663110E-1,1.375273527E-1,3.321267607E0,3.364411680E0
7.039151625E0,-6.249683160E-1,-2.108653789E-1,4.754145344E0,4.799682027E0
7.049088625E0,-5.769175789E-1,-5.298945264E-1,6.129638507E0,6.179489488E0
7.059026625E0,-4.671061380E-1,-7.513100548E-1,7.095561111E0,7.150499453E0
7.068964625E0,-2.807288434E-1,-8.248863734E-1,7.336223152E0,7.387788326E0
7.078901625E0,-4.317876399E-2,-6.938796528E-1,6.832673804E0,6.867952001E0
7.088839625E0,6.434802353E-2,-4.159408449E-1,5.628126914E0,5.643842664E0
7.098777625E0,-4.371926598E-2,-2.166042201E-1,4.075266650E0,4.081253120E0
7.108714625E0,-2.519559377E-1,-2.087339044E-1,2.663138927E0,2.683162422E0
7.118652625E0,-2.943804109E-1,-3.143564365E-1,1.476212037E0,1.537752182E0
7.128590625E0,-7.147490233E-2,-5.205266657E-1,5.774423665E-1,7.807024772E-1
7.138527625E0,3.447122565E-1,-7.604852132E-1,-8.284159720E-2,8.390631857E-1
7.148465625E0,8.098358595E-1,-9.616795716E-1,-6.003850865E-1,1.393242251E0
7.158403625E0,1.300531858E0,-1.110157042E0,-9.868907189E-1,1.974280898E0
7.168340625E0,1.596982476E0,-1.136326401E0,-1.185448714E0,2.290606769E0
7.178278625E0,1.648785591E0,-1.105119373E0,-1.244233112E0,2.342626472E0
7.188216625E0,1.426987252E0,-1.105966488E0,-1.232722283E0,2.186105834E0
7.198153625E0,1.022729765E0,-1.113707836E0,-1.299607413E0,1.993815625E0
7.208091625E0,6.521248320E-1,-1.087957356E0,-1.485575768E0,1.953420940E0
7.218029625E0,4.494644306E-1,-1.000710686E0,-1.803899358E0,2.111277586E0
7.227966625E0,3.144838692E-1,-8.875186776E-1,-2.206838590E0,2.399317834E0
7.237904625E0,1.871318778E-1,-8.396147787E-1,-2.643650157E0,2.780082278E0
7.247842625E0,6.306514442E-2,-7.812874138E-1,-3.070804464E0,3.169262894E0
7.257779625E0,2.093844071E-2,-6.330595469E-1,-3.369383760E0,3.428403379E0
7.267717625E0,1.069958969E-1,-4.109442895E-1,-3.587050456E0,3.612098324E0
7.277655625E0,2.962294467E-1,-1.791462623E-1,-3.745569057E0,3.761533308E0
7.287593625E0,5.438213516E-1,1.225094005E-2,-3.864077500E0,3.902177171E0
7.297530625E0,8.056407747E-1,1.753047878E-1,-3.889004765E0,3.975442980E0
7.307468625E0,1.088779767E0,3.223635770E-1,-3.846719456E0,4.010811667E0
7.317406625E0,1.317895019E0,4.797595127E-1,-3.682745987E0,3.940765722E0
7.327343625E0,1.472752824E0,6.174816873E-1,-3.370245640E0,3.729455750E0
7.337281625E0,1.563332627E0,8.023099083E-1,-2.978818991E0,3.458478375E0
7.347219625E0,1.593563901E0,1.032957861E0,-2.594431804E0,3.215202052E0
7.357156958E0,1.626252176E0,1.231097926E0,-2.271765488E0,3.053066766E0
7.367094958E0,1.574667162E0,1.423956348E0,-2.042152346E0,2.945779108E0
7.377032958E0,1.419206509E0,1.535853637E0,-1.800172343E0,2.759277799E0
7.386969958E0,1.227026218E0,1.564539200E0,-1.546760448E0,2.519095896E0
7.396907958E0,1.124353204E0,1.532089638E0,-1.191273125E0,2.242900008E0
7.406845958E0,1.129417624E0,1.506388348E0,-7.038468897E-1,2.010022504E0
7.416782958E0,1.161636805E0,1.450397311E0,-7.660378754E-2,1.859817348E0
7.426720958E0,1.146275585E0,1.345965601E0,5.854074436E-1,1.862329990E0
7.436658958E0,1.091843562E0,1.204096654E0,1.182840271E0,2.010244319E0
7.446595958E0,1.021838065E0,1.077368487E0,1.725577658E0,2.276509201E0
7.456533958E0,9.728594479E-1,9.651912631E-1,2.289410046E0,2.668229382E0
7.466471958E0,9.508169798E-1,8.794452077E-1,2.954951826E0,3.226331833E0
7.476408958E0,9.058443631E-1,8.146435864E-1,3.629049252E0,3.828080022E0
7.486346958E0,8.435409647E-1,6.970399998E-1,4.156533008E0,4.298161556E0
7.496284958E0,6.880561915E-1,5.859790455E-1,4.423736145E0,4.515111764E0
7.506221958E0,5.217992391E-1,5.090269466E-1,4.414404573E0,4.474187146E0
7.516159958E0,5.047506586E-1,7.275699207E-1,4.107744425E0,4.202106076E0
7.526097958E0,6.899322706E-1,1.299762072E0,3.469417925E0,3.768587099E0
7.536034958E0,8.277819876E-1,1.698227892E0,2.751932990E0,3.338013807E0
7.545972958E0,7.107195608E-1,1.666347118E0,2.241720740E0,2.882212151E0
7.555910958E0,4.197106179E-1,1.241067575E0,2.295593476E0,2.643133583E0
7.565847958E0,-6.854266986E-2,5.127545101E-1,3.115926257E0,3.158577485E0
7.575785958E0,-4.905085589E-1,-3.278934351E-1,4.376138055E0,4.415732898E0
7.585723958E0,-7.588923586E-1,-1.228524421E0,5.541519125E0,5.726571756E0
7.595660958E0,-8.533001138E-1,-1.999823913E0,6.290829286E0,6.655970994E0
7.605598958E0,-7.228516562E-1,-2.494901084E0,6.470806584E0,6.972688419E0
7.615536958E0,-3.702660873E-1,-2.537751235E0,5.921348991E0,6.452879371E0
7.625473958E0,1.193785820E-2,-2.211837082E0,4.604853065E0,5.108525966E0
7.635411958E0,3.034187445E-1,-1.851457686E0,2.661410490E0,3.256234681E0
7.645349958E0,3.940907867E-1,-1.595803970E0,5.938753814E-1,1.747737345E0
7.655287958E0,4.685901248E-1,-1.358487121E0,-1.224789950E0,1.888166938E0
7.665224958E0,6.259787880E-1,-1.112778421E0,-2.532889860E0,2.836486612E0
7.675162958E0,7.545081894E-1,-9.705267743E-1,-3.270161188E0,3.493588273E0
7.685100958E0,7.912201522E-1,-9.797984849E-1,-3.444538608E0,3.667544222E0
7.695037958E0,6.786744802E-1,-1.100482092E0,-3.157713969E0,3.412157293E0
7.704975958E0,4.939968981E-1,-1.240224553E0,-2.607469926E0,2.929349636E0
7.714913958E0,2.924813084E-1,-1.419299333E0,-2.100653738E0,2.551999616E0
7.724850958E0,1.587471541E-1,-1.562963375E0,-1.836888764E0,2.417067542E0
7.734788958E0,9.242489129E-2,-1.681295525E0,-1.828906145E0,2.485999737E0
7.744726958E0,5.864903480E-3,-1.762506480E0,-2.012455507E0,2.675152455E0
7.754663958E0,-8.242732197E-2,-1.811523104E0,-2.224597753E0,2.870060171E0
7.764601958E0,-1.734384296E-1,-1.814745358E0,-2.417266433E0,3.027632509E0
7.774539958E0,-2.949481025E-1,-1.820653970E0,-2.541343179E0,3.140095606E0
7.784476958E0,-3.715559100E-1,-1.766505098E0,-2.629126258E0,3.189184683E0
7.794414958E0,-4.064631296E-1,-1.686941889E0,-2.729316545E0,3.234216136E0
7.804352958E0,-4.079947346E-1,-1.573025410E0,-2.803181496E0,3.240168999E0
7.814289958E0,-3.811903672E-1,-1.482385820E0,-2.924718212E0,3.301022635E0
7.824227958E0,-3.465279266E-1,-1.374780972E0,-3.034779768E0,3.349625735E0
7.834165958E0,-2.893844768E-1,-1.272393156E0,-3.154457654E0,3.413697528E0
7.844102958E0,-2.569472672E-1,-1.141046859E0,-3.202429966E0,3.409335348E0
7.854040958E0,-2.931968614E-1,-9.574735232E-1,-3.191927782E0,3.345313574E0
7.863978958E0,-4.161963317E-1,-8.050380729E-1,-3.076832358E0,3.207522883E0
7.873915958E0,-6.163275200E-1,-6.617780735E-1,-2.879512219E0,3.018178333E0
7.883853958E0,-8.419177046E-1,-4.618813585E-1,-2.660819921E0,2.828802302E0
7.893791958E0,-1.096752519E0,-2.687817393E-1,-2.467025068E0,2.713175704E0
7.903728958E0,-1.375064854E0,-1.388818967E-1,-2.288304922E0,2.673280934E0
7.913666958E0,-1.786698457E0,-1.023575565E-1,-2.068170117E0,2.734976431E0
7.923604958E0,-2.270042313E0,-1.512233225E-1,-1.886478415E0,2.955462977E0
7.933541958E0,-2.656803177E0,-1.481804314E-1,-1.753892215E0,3.186957556E0
7.943479958E0,-2.847586421E0,3.215237707E-3,-1.713387968E0,3.323320191E0
7.953417958E0,-2.915299225E0,2.190660806E-1,-1.725214546E0,3.394602296E0
7.963354958E0,-2.914389691E0,4.119044754E-1,-1.719453869E0,3.408790720E0
7.973292958E0,-2.867524257E0,5.322324260E-1,-1.570735202E0,3.312578421E0
7.983230958E0,-2.725991233E0,5.852276418E-1,-1.236855680E0,3.050136320E0
7.993167958E0,-2.552779748E0,5.963500692E-1,-8.202725548E-1,2.746846358E0
8.003105958E0,-2.471706057E0,5.474226882E-1,-4.875075120E-1,2.578112877E0
8.013043958E0,-2.443491780E0,4.412594714E-1,-2.481786364E-1,2.495386670E0
8.022980958E0,-2.500977803E0,3.036021278E-1,-3.209829032E-2,2.519542523E0
8.032918958E0,-2.661894932E0,2.185369807E-1,1.251684219E-1,2.673781998E0
8.042856958E0,-2.765987357E0,1.474422935E-1,3.152853763E-1,2.787800237E0
8.052793958E0,-2.733895499E0,1.502103654E-1,7.199279022E-1,2.831085293E0
8.062731958E0,-2.437293877E0,3.723300813E-1,1.323514339E0,2.798342606E0
8.072669958E0,-1.833075795E0,6.675475211E-1,1.979874237E0,2.779512287E0
8.082606958E0,-1.043892447E0,5.957885538E-1,2.932109093E0,3.168901888E0
8.092544958E0,-3.497605598E-1,1.161052741E-1,4.092273862E0,4.108834171E0
8.102482958E0,2.128263706E-1,-5.997815808E-1,5.306784407E0,5.344809983E0
8.112419958E0,4.997689770E-1,-1.408534901E0,6.320555361E0,6.494856401E0
8.122357958E0,5.652779652E-1,-2.131876701E0,6.972926872E0,7.313422360E0
8.132295958E0,4.896199648E-1,-2.565969313E0,7.234509666E0,7.691687483E0
8.142233958E0,3.746824162E-1,-2.637208572E0,7.066545473E0,7.551908427E0
8.152170958E0,3.222920948E-1,-2.518600142E0,6.561481696E0,7.035642182E0
8.162108958E0,4.312795168E-1,-2.251473311E0,5.712000545E0,6.154842347E0
8.172046958E0,8.141240613E-1,-1.938622715E0,4.434319021E0,4.907569785E0
8.181983958E0,1.346590668E0,-1.609497564E0,2.921902778E0,3.597402491E0
8.191921958E0,1.764398200E0,-1.314927703E0,1.477859198E0,2.650698716E0
8.201859958E0,2.090827200E0,-1.043744293E0,2.168317133E-1,2.346907864E0
8.211796958E0,2.367027887E0,-8.161167924E-1,-8.681507260E-1,2.650010060E0
8.221734958E0,2.619258497E0,-6.913054892E-1,-1.677880751E0,3.186487434E0
8.231672958E0,2.844589723E0,-6.699871988E-1,-2.186913033E0,3.650090705E0
8.241609958E0,2.956403689E0,-6.813499468E-1,-2.498291885E0,3.930142856E0
8.251547958E0,3.054454479E0,-7.307679822E-1,-2.664159851E0,4.118429521E0
8.261485958E0,3.107082928E0,-7.226940007E-1,-2.719024860E0,4.191580505E0
8.271422958E0,3.040462092E0,-6.571930524E-1,-2.748963774E0,4.151278631E0
8.281360958E0,2.888628613E0,-5.545707632E-1,-2.719372185E0,4.005834379E0
8.291298958E0,2.708964141E0,-3.760595816E-1,-2.629561291E0,3.794008449E0
8.301235958E0,2.489447679E0,-1.776739334E-1,-2.521134617E0,3.547539645E0
8.311173958E0,2.188190650E0,1.291342959E-2,-2.435296322E0,3.273990417E0
8.321111958E0,1.930217196E0,2.139919399E-1,-2.293197872E0,3.005043669E0
8.331048958E0,1.660475929E0,4.434101504E-1,-2.120239572E0,2.729323857E0
8.340986958E0,1.440399303E0,6.372899343E-1,-1.894011383E0,2.463365124E0
8.350924958E0,1.245369664E0,7.884969576E-1,-1.700846275E0,2.250677921E0
8.360862208E0,1.103314484E0,9.071911962E-1,-1.601626627E0,2.146044400E0
8.370800208E0,1.056685278E0,1.014706070E0,-1.576894074E0,2.152395667E0
8.380738208E0,1.106610486E0,1.145966633E0,-1.610627831E0,2.265380387E0
8.390675208E0,1.254066520E0,1.209174376E0,-1.611909540E0,2.373402173E0
8.400613208E0,1.438424260E0,1.240367225E0,-1.481385069E0,2.408750076E0
8.410551208E0,1.567953389E0,1.224645305E0,-1.193400927E0,2.320008562E0
8.420488208E0,1.529232542E0,1.129024398E0,-8.896339810E-1,2.098736973E0
8.430426208E0,1.398249211E0,1.011429583E0,-5.793286783E-1,1.820360506E0
8.440364208E0,1.210913338E0,9.314577989E-1,-2.046396840E-1,1.541363729E0
8.450301208E0,1.008447722E0,9.147851944E-1,2.217831355E-1,1.379487774E0
8.460239208E0,8.533981278E-1,9.005010313E-1,5.992706072E-1,1.377793792E0
8.470177208E0,6.851398927E-1,8.563378154E-1,8.539326364E-1,1.389939594E0
8.480114208E0,5.330262220E-1,8.419403625E-1,1.070536308E0,1.462541799E0
8.490052208E0,3.798622818E-1,8.686065895E-1,1.317256649E0,1.622941108E0
8.499990208E0,2.275223604E-1,9.911680303E-1,1.599362585E0,1.895294480E0
8.509927208E0,1.261680034E-1,1.157615383E0,1.893538928E0,2.222944311E0
8.519865208E0,6.343132630E-4,1.300487712E0,2.088891479E0,2.460637377E0
8.529803208E0,-1.031067310E-1,1.399973554E0,2.193837306E0,2.604511293E0
8.539740208E0,-1.179486089E-1,1.447878038E0,2.182184390E0,2.621486486E0
8.549678208E0,-6.038562130E-2,1.474574671E0,2.104526349E0,2.570417872E0
8.559616208E0,8.406432308E-2,1.470431772E0,1.967797397E0,2.457938771E0
8.569553208E0,3.076762119E-1,1.488789106E0,1.801831782E0,2.357489221E0
8.579491208E0,5.496398062E-1,1.462038240E0,1.664567226E0,2.282639652E0
8.589429208E0,7.553579360E-1,1.506202845E0,1.612129980E0,2.331989643E0
8.599366208E0,9.472931553E-1,1.813889326E0,1.594019399E0,2.593926879E0
8.609304208E0,1.036557846E0,2.070424218E0,1.566506495E0,2.795541309E0
8.619242208E0,1.002711238E0,2.127526811E0,1.572209870E0,2.829071231E0
8.629179208E0,8.650091632E-1,1.915175380E0,1.678698192E0,2.689640349E0
8.639117208E0,6.638101271E-1,1.385521284E0,1.986115555E0,2.510969556E0
8.649055208E0,4.901746463E-1,5.934135975E-1,2.725359149E0,2.831959282E0
8.658992208E0,4.356353270E-1,-2.776846551E-1,3.854472864E0,3.888939182E0
8.668930208E0,4.991316305E-1,-1.029400123E0,4.940730581E0,5.071451042E0
8.678868208E0,6.571521219E-1,-1.537574911E0,5.688522804E0,5.929188580E0
8.688805208E0,8.852114394E-1,-1.780203809E0,5.809291196E0,6.140080545E0
8.698743208E0,1.133315012E0,-1.789700564E0,5.182370276E0,5.598606318E0
8.708681208E0,1.336332605E0,-1.617688197E0,3.888529971E0,4.418525237E0
8.718618208E0,1.477384404E0,-1.381459369E0,2.323556031E0,3.080585544E0
8.728556208E0,1.541957838E0,-1.150526803E0,9.055214506E-1,2.126338401E0
8.738494208E0,1.588397009E0,-1.049989850E0,-8.794153869E-2,1.906100065E0
8.748431208E0,1.621139955E0,-1.056923332E0,-5.852454758E-1,2.021804627E0
8.758369208E0,1.601802482E0,-1.171965400E0,-5.698041487E-1,2.064933621E0
8.768307208E0,1.474792333E0,-1.342450547E0,-2.134385741E-1,2.005677422E0
8.778244208E0,1.292645718E0,-1.504472508E0,1.768999082E-1,1.991397514E0
8.788182208E0,1.137983648E0,-1.643622207E0,2.705208474E-1,2.017345353E0
8.798120208E0,1.026098346E0,-1.765526420E0,-2.551724911E-2,2.042207748E0
8.808057208E0,9.689315808E-1,-1.889680643E0,-5.193590498E-1,2.186196506E0
8.817995208E0,9.356033286E-1,-2.008162920E0,-1.059753458E0,2.455839834E0
8.827933208E0,9.242701091E-1,-2.125370357E0,-1.577107497E0,2.803344868E0
8.837870208E0,9.517754115E-1,-2.171645368E0,-2.056930014E0,3.138929933E0
8.847808208E0,9.887200204E-1,-2.206923959E0,-2.462740813E0,3.451546458E0
8.857746208E0,9.963775340E-1,-2.190473257E0,-2.798188559E0,3.690636868E0
8.867683208E0,1.028299823E0,-2.158262115E0,-3.061106856E0,3.884053433E0
8.877621208E0,1.037727581E0,-2.082330026E0,-3.252761044E0,3.999178826E0
8.887559208E0,1.036523055E0,-2.024434551E0,-3.337088419E0,4.038424744E0
8.897496208E0,1.073390773E0,-1.960471713E0,-3.378607158E0,4.051000298E0
8.907434208E0,1.080988060E0,-1.931064458E0,-3.378215979E0,4.038550276E0
8.917372208E0,1.073551571E0,-1.888436501E0,-3.328009447E0,3.974210900E0
8.927309208E0,1.067328672E0,-1.824968922E0,-3.279136664E0,3.901594459E0
8.937247208E0,1.032664623E0,-1.770065175E0,-3.211663304E0,3.809764839E0
8.947185208E0,9.770122866E-1,-1.737940280E0,-3.063652149E0,3.655263864E0
8.957122208E0,8.365474024E-1,-1.718868856E0,-2.828433282E0,3.413847760E0
8.967060208E0,6.593783762E-1,-1.709476912E0,-2.586456787E0,3.169676618E0
8.976998208E0,4.354881965E-1,-1.724060014E0,-2.249670029E0,2.867585769E0
8.986935208E0,1.960286357E-1,-1.793526836E0,-1.830654463E0,2.570303776E0
8.996873208E0,-7.620529979E-3,-1.877577491E0,-1.356685594E0,2.316452268E0
9.006811208E0,-2.334090082E-1,-1.902432104E0,-8.767315149E-1,2.107696806E0
9.016748208E0,-4.010739702E-1,-1.835935522E0,-4.191716874E-1,1.925415403E0
9.026686208E0,-5.848636526E-1,-1.682591706E0,-6.393813372E-2,1.782489391E0
9.036624208E0,-7.248223141E-1,-1.416541494E0,1.360530138E-1,1.597018351E0
9.046561208E0,-8.617705366E-1,-1.111130895E0,7.993085325E-2,1.408420841E0
9.056499208E0,-1.089744266E0,-7.695837732E-1,-1.645891804E-1,1.344206586E0
9.066437208E0,-1.259412337E0,-4.423886418E-1,-5.058905733E-1,1.427498658E0
9.076374208E0,-1.411079756E0,-1.449362500E-1,-7.283677733E-1,1.594575871E0
9.086312208E0,-1.514878359E0,1.392366765E-1,-7.591124332E-1,1.700145576E0
9.096250208E0,-1.586522538E0,3.759606175E-1,-7.159044331E-1,1.780707530E0
9.106187208E0,-1.578668265E0,6.125434944E-1,-7.057390487E-1,1.834521908E0
9.116125208E0,-1.484004914E0,9.692593172E-1,-7.857184339E-1,1.938836678E0
9.126063208E0,-1.296726929E0,1.454305005E0,-9.410450399E-1,2.163809036E0
9.136000208E0,-1.030320913E0,1.897228667E0,-1.160764108E0,2.451206053E0
9.145938208E0,-8.476725342E-1,2.246194883E0,-1.388848203E0,2.773596854E0
9.155876208E0,-8.822737983E-1,2.425451219E0,-1.420246582E0,2.945899018E0
9.165813208E0,-1.186063768E0,2.078935133E0,-8.877207720E-1,2.552795863E0
9.175751208E0,-1.458583413E0,1.244150958E0,3.046451980E-1,1.941181567E0
9.185689208E0,-1.318123499E0,2.753942824E-1,2.223799024E0,2.599725691E0
9.195626208E0,-6.812539063E-1,-5.391346986E-1,4.743420382E0,4.822324131E0
9.205564208E0,2.834959469E-1,-1.070264559E0,7.425709525E0,7.507795823E0
9.215502208E0,1.410946001E0,-1.217147639E0,9.478895566E0,9.660314599E0
9.225439208E0,2.100328487E0,-7.580398346E-1,1.007188276E1,1.031643477E1
9.235377208E0,1.379077945E0,4.561467748E-3,9.154102033E0,9.257400327E0
9.245315208E0,-3.773447265E-1,3.019118622E-1,7.322758183E0,7.338687024E0
9.255252208E0,-1.976238146E0,3.394805334E-1,5.025002992E0,5.410306766E0
9.265190208E0,-2.730991772E0,3.790597149E-1,2.797551797E0,3.927887267E0
9.275128208E0,-2.184374172E0,6.235381602E-1,1.108831478E0,2.527804899E0
9.285065208E0,-6.113229978E-1,6.562272386E-1,2.424489498E-2,8.971832651E-1
9.295003208E0,1.036598411E0,7.643487610E-2,-5.863932842E-1,1.193413440E0
9.304941208E0,2.305118883E0,-8.329524612E-1,-9.577926350E-1,2.631491896E0
9.314878208E0,3.167468586E0,-1.460615759E0,-1.113678235E0,3.661493527E0
9.324816208E0,3.741687090E0,-1.580306217E0,-1.109672307E0,4.210577472E0
9.334754208E0,3.926700595E0,-1.441081235E0,-1.181240473E0,4.346380303E0
9.344691208E0,3.643588353E0,-1.322665177E0,-1.429434312E0,4.131399486E0
9.354628750E0,3.022277836E0,-1.236190851E0,-1.804640785E0,3.730825579E0
9.364566750E0,2.353808355E0,-1.117348678E0,-2.202039195E0,3.411430559E0
9.374503750E0,1.928755100E0,-9.443259126E-1,-2.515140637E0,3.307231484E0
9.384441750E0,1.715983401E0,-7.929678118E-1,-2.785120032E0,3.366049699E0
9.394379750E0,1.713666442E0,-6.280001704E-1,-2.948171979E0,3.467384447E0
9.404316750E0,1.890346641E0,-4.720324172E-1,-3.040318835E0,3.611061291E0
9.414254750E0,2.218047848E0,-3.453982446E-1,-3.073856710E0,3.806262114E0
9.424192750E0,2.513307827E0,-2.500307420E-1,-3.082277285E0,3.984929719E0
9.434129750E0,2.768885238E0,-1.908402550E-1,-3.066745911E0,4.136190995E0
9.444067750E0,2.954113627E0,-2.012452291E-1,-3.073296547E0,4.267603383E0
9.454005750E0,3.090366908E0,-1.855555415E-1,-3.022560841E0,4.326739249E0
9.463942750E0,3.144800685E0,-1.161126928E-1,-2.902861905E0,4.281338663E0
9.473880750E0,3.223677578E0,-2.028676853E-2,-2.701187344E0,4.205819985E0
9.483818750E0,3.292712437E0,3.390727267E-2,-2.474021262E0,4.118723844E0
9.493755750E0,3.319728035E0,5.458273485E-2,-2.282438995E0,4.029032300E0
9.503693750E0,3.303088029E0,3.943888485E-2,-2.152324998E0,3.942644906E0
9.513631750E0,3.278325948E0,-3.646747604E-2,-2.069319679E0,3.876962062E0
9.523568750E0,3.263240716E0,-2.177698991E-1,-1.890025921E0,3.777348499E0
9.533506750E0,3.195417400E0,-4.072785969E-1,-1.564284554E0,3.580999076E0
9.543444750E0,3.166816037E0,-6.674491417E-1,-1.102474385E0,3.419014761E0
9.553381750E0,3.154312351E0,-9.728192483E-1,-5.923913580E-1,3.353653414E0
9.563319750E0,3.122813693E0,-1.364630059E0,-4.473880112E-2,3.408252062E0
9.573257750E0,3.039852812E0,-1.824650249E0,5.783112627E-1,3.592283058E0
9.583194750E0,2.947657717E0,-2.296422904E0,1.373353082E0,3.980997721E0
9.593132750E0,2.943949120E0,-2.663424564E0,2.323194673E0,4.599771768E0
9.603070750E0,2.987840660E0,-2.907945182E0,3.241907442E0,5.281410877E0
9.613007750E0,2.967865986E0,-3.093857988E0,3.790214303E0,5.722404235E0
9.622945750E0,2.870904533E0,-3.249379014E0,3.952740585E0,5.867257873E0
9.632883750E0,2.671376485E0,-3.341857115E0,3.780889748E0,5.709587427E0
9.642820750E0,2.436861622E0,-3.328055055E0,3.385580547E0,5.336328387E0
9.652758750E0,2.231976355E0,-3.270459396E0,2.967119297E0,4.947870252E0
9.662696750E0,2.094777579E0,-3.184267344E0,2.692354540E0,4.666521681E0
9.672633750E0,2.000148726E0,-3.089295698E0,2.672387468E0,4.548186190E0
9.682571750E0,1.936612442E0,-2.997033944E0,2.850290174E0,4.566928321E0
9.692509750E0,1.733024526E0,-2.944595237E0,3.149440159E0,4.646825630E0
9.702446750E0,1.404464362E0,-2.976455546E0,3.399495167E0,4.731635568E0
9.712384750E0,1.051974176E0,-3.011629472E0,3.452614782E0,4.700756383E0
9.722322750E0,7.648408042E-1,-3.007010464E0,3.325038477E0,4.547853808E0
9.732259750E0,5.129659235E-1,-3.001987121E0,3.200241353E0,4.417760228E0
9.742197750E0,2.678624839E-1,-3.041778008E0,3.059594766E0,4.322647788E0
9.752135750E0,1.522237810E-1,-3.064217575E0,2.984780812E0,4.280364228E0
9.762072750E0,2.203749067E-1,-3.043368158E0,2.895938802E0,4.206794075E0
9.772010750E0,4.323793781E-1,-2.948489191E0,2.643806863E0,3.983748883E0
9.781948750E0,7.653883228E-1,-2.803137642E0,2.200060498E0,3.644676408E0
9.791885750E0,1.084879309E0,-2.625749199E0,1.622518144E0,3.271710118E0
9.801823750E0,1.283187701E0,-2.486814970E0,1.011644906E0,2.975608305E0
9.811761750E0,1.415277033E0,-2.354494234E0,4.010728008E-1,2.776240546E0
9.821698750E0,1.503996398E0,-2.186777232E0,-7.115476727E-2,2.655007124E0
9.831636750E0,1.534796168E0,-2.053300940E0,-3.796146888E-1,2.591476671E0
9.841574750E0,1.527933876E0,-1.919340937E0,-5.181299651E-1,2.507371177E0
9.851511750E0,1.561514581E0,-1.829248353E0,-5.353143471E-1,2.463947803E0
9.861449750E0,1.669741281E0,-1.754237494E0,-5.677833509E-1,2.487521470E0
9.871387750E0,1.849207239E0,-1.711585125E0,-6.057405514E-1,2.591527092E0
9.881324750E0,2.027089334E0,-1.675590835E0,-6.509260798E-1,2.709317363E0
9.891262750E0,2.170471394E0,-1.635151784E0,-7.060623997E-1,2.807702181E0
9.901200750E0,2.298316671E0,-1.594552227E0,-7.485301423E-1,2.895712986E0
9.911137750E0,2.391848001E0,-1.543839764E0,-8.583350050E-1,2.973401597E0
9.921075750E0,2.469125096E0,-1.462776744E0,-1.040144235E0,3.052571796E0
9.931013750E0,2.501487973E0,-1.349592629E0,-1.208247592E0,3.088479332E0
9.940950750E0,2.512855252E0,-1.232929421E0,-1.369893284E0,3.116274071E0
9.950888750E0,2.470303310E0,-1.086299086E0,-1.489691039E0,3.082470363E0
9.960826750E0,2.459315807E0,-9.529974796E-1,-1.555527763E0,3.062042628E0
9.970763750E0,2.491036075E0,-7.998403367E-1,-1.572222733E0,3.052358042E0
9.980701750E0,2.529518063E0,-6.616416872E-1,-1.522695647E0,3.025695521E0
9.990639750E0,2.595714391E0,-5.314300418E-1,-1.388522514E0,2.991345159E0
1.000057675E1,2.642651745E0,-4.509853645E-1,-1.248630803E0,2.957376359E0
1.001051475E1,2.709414084E0,-4.016431966E-1,-1.099821503E0,2.951584198E0
1.002045275E1,2.805599028E0,-3.975818668E-1,-9.588334394E-1,2.991457639E0
1.003038975E1,2.973656776E0,-4.222318277E-1,-8.341105753E-1,3.117154919E0
1.004032775E1,3.138512882E0,-4.647400622E-1,-7.412427574E-1,3.258172381E0
1.005026575E1,3.284851148E0,-5.098887531E-1,-6.047933024E-1,3.378758432E0
1.006020275E1,3.415468298E0,-5.475946695E-1,-4.033181316E-1,3.482520514E0
1.007014075E1,3.489208704E0,-5.705110770E-1,-1.171986669E-1,3.537484388E0
1.008007875E1,3.515393413E0,-6.797971456E-1,2.287810832E-1,3.587820479E0
1.009001575E1,3.522161565E0,-7.679779816E-1,5.551282221E-1,3.647407245E0
1.009995375E1,3.566038194E0,-8.455594236E-1,8.852813137E-1,3.770321226E0
1.010989075E1,3.654003414E0,-9.131995757E-1,1.311574325E0,3.988220358E0
1.011982875E1,3.824023196E0,-9.789085387E-1,1.773020212E0,4.327241154E0
1.012976675E1,3.981454507E0,-1.021073249E0,2.253405231E0,4.687473275E0
1.013970375E1,4.087028032E0,-9.439860432E-1,2.622194969E0,4.946798383E0
1.014964175E1,4.115647522E0,-6.869861510E-1,2.775566851E0,5.011414555E0
1.015957975E1,4.004746014E0,-2.823504956E-1,2.680776469E0,4.827450146E0
1.016951675E1,3.718437392E0,1.263616924E-1,2.414106013E0,4.435160848E0
1.017945475E1,3.291022592E0,4.431362084E-1,2.133477668E0,3.947014867E0
1.018939275E1,2.848987999E0,5.844804407E-1,2.061853954E0,3.565051435E0
1.019932975E1,2.449430066E0,5.072011536E-1,2.256824682E0,3.369008504E0
1.020926775E1,2.232753011E0,2.419680163E-1,2.692193742E0,3.505943764E0
1.021920575E1,2.154654675E0,-1.952828233E-1,3.096703536E0,3.777597774E0
1.022914275E1,2.247292405E0,-6.755995756E-1,3.327066876E0,4.071379611E0
1.023908075E1,2.387935337E0,-1.156789829E0,3.358538929E0,4.280208128E0
1.024901875E1,2.418547850E0,-1.620737959E0,3.098825490E0,4.251927169E0
1.025895575E1,2.321030326E0,-2.028697318E0,2.644049522E0,4.061255035E0
1.026889375E1,2.142838330E0,-2.315657904E0,2.091343217E0,3.785200667E0
1.027883175E1,1.829991681E0,-2.438203996E0,1.420227871E0,3.363146664E0
1.028876875E1,1.373147845E0,-2.521362074E0,6.384902215E-1,2.941168386E0
1.029870675E1,9.135837378E-1,-2.603238588E0,-2.357913101E-1,2.768949970E0
1.030864475E1,4.787906291E-1,-2.631206405E0,-1.104425016E0,2.893482716E0
1.031858175E1,1.549493144E-1,-2.585705420E0,-1.915435581E0,3.221610665E0
1.032851975E1,6.478714943E-3,-2.386070806E0,-2.588326727E0,3.520342470E0
1.033845775E1,6.890598295E-2,-2.080476459E0,-3.135853568E0,3.763868745E0
1.034839475E1,2.185132446E-1,-1.708970689E0,-3.570766545E0,3.964681900E0
1.035833325E1,3.075428588E-1,-1.297161085E0,-3.874059282E0,4.097016574E0
1.036827125E1,2.477209456E-1,-7.839869271E-1,-4.097727560E0,4.179398560E0
1.037820825E1,1.197259432E-1,-1.096216987E-1,-4.221368689E0,4.224488706E0
1.038814625E1,-1.749151439E-1,7.039834222E-1,-4.257624934E0,4.318976505E0
1.039808425E1,-6.381602924E-1,1.465827821E0,-4.222736353E0,4.515241086E0
1.040802125E1,-1.356442350E0,2.022862381E0,-4.114459952E0,4.781285262E0
1.041795925E1,-2.195540015E0,2.397675921E0,-3.816166584E0,5.013219842E0
1.042789725E1,-3.067979089E0,2.568149155E0,-3.294790245E0,5.183003814E0
1.043783425E1,-3.652588680E0,2.554572505E0,-2.572030537E0,5.146123379E0
1.044777225E1,-3.749511250E0,2.370464880E0,-1.727230666E0,4.760384872E0
1.045771025E1,-3.250893443E0,2.073949651E0,-7.355908388E-1,3.925642523E0
1.046764725E1,-2.426067954E0,1.625194853E0,7.124832273E-1,3.005777167E0
1.047758525E1,-1.512475299E0,1.044026567E0,2.578700455E0,3.166586339E0
1.048752325E1,-6.230528413E-1,5.193235280E-1,4.247364240E0,4.324117801E0
1.049746025E1,1.371460777E-1,1.307127517E-1,5.168115349E0,5.171586906E0
1.050739825E1,6.286192444E-1,-5.329415470E-2,5.198028535E0,5.236172559E0
1.051733625E1,6.734550362E-1,-1.066865426E-1,4.395247341E0,4.447822264E0
1.052727325E1,5.203474485E-1,-1.006415449E-1,3.096329314E0,3.141360439E0
1.053721125E1,4.276873530E-1,1.112535835E-1,1.821332247E0,1.874178483E0
1.054714925E1,5.922844271E-1,4.866074062E-1,8.232411861E-1,1.124861619E0
1.055708625E1,8.702759696E-1,7.684468552E-1,1.258899683E-1,1.167792412E0
1.056702425E1,1.164556905E0,8.611283661E-1,-4.117094707E-1,1.505735546E0
1.057696225E1,1.463208999E0,7.983362867E-1,-8.191510588E-1,1.857237157E0
1.058689925E1,1.711571092E0,7.648571764E-1,-1.018576781E0,2.133537148E0
1.059683725E1,1.936759938E0,7.112450793E-1,-9.974385113E-1,2.291678905E0
1.060677525E1,2.018664665E0,6.127613032E-1,-7.655367690E-1,2.244221466E0
1.061671225E1,1.874512819E0,4.391334969E-1,-3.069525093E-1,1.949578514E0
1.062665025E1,1.413072487E0,1.835366441E-1,2.056378037E-1,1.439703601E0
1.063658725E1,7.995989198E-1,-1.223834296E-1,7.607689494E-1,1.110452849E0
1.064652525E1,2.940949572E-1,-4.178186417E-1,1.391641418E0,1.482474316E0
1.065646325E1,9.440179836E-2,-6.524613393E-1,2.124561249E0,2.224494999E0
1.066640025E1,1.668034113E-1,-7.899130802E-1,2.781749697E0,2.896535418E0
1.067633825E1,4.304286008E-1,-8.839781886E-1,3.099286251E0,3.251501420E0
1.068627625E1,8.100106913E-1,-8.968274450E-1,2.917945383E0,3.158294166E0
1.069621325E1,1.152028514E0,-7.543867135E-1,2.279154614E0,2.662858383E0
1.070615125E1,1.362094414E0,-4.086490015E-1,1.343195482E0,1.956136320E0
1.071608925E1,1.290533119E0,-1.194751068E-2,3.922511065E-1,1.348880798E0
1.072602625E1,1.072804882E0,3.827030053E-1,-3.858355415E-1,1.202597593E0
1.073596425E1,8.538276789E-1,8.315857476E-1,-1.030443705E0,1.575554121E0
1.074590225E1,6.729411390E-1,1.273459834E0,-1.574939350E0,2.134240774E0
1.075583925E1,5.101841837E-1,1.672038944E0,-2.140675591E0,2.763782574E0
1.076577725E1,4.047533672E-1,2.030598394E0,-2.718132575E0,3.416928419E0
1.077571525E1,3.839157544E-1,2.352575178E0,-3.200540146E0,3.990671434E0
1.078565225E1,4.413363623E-1,2.638204061E0,-3.552761799E0,4.447135578E0
1.079559025E1,5.717353378E-1,2.857518502E0,-3.787791801E0,4.779085688E0
1.080552825E1,7.882172415E-1,3.010099840E0,-3.857994057E0,4.956420645E0
1.081546525E1,1.059611005E0,3.035129724E0,-3.691196968E0,4.894867003E0
1.082540325E1,1.293769992E0,2.984854779E0,-3.270405602E0,4.612889728E0
1.083534125E1,1.515793594E0,2.827157127E0,-2.632651545E0,4.149855636E0
1.084527825E1,1.785042380E0,2.666018389E0,-1.973203733E0,3.766638198E0
1.085521625E1,2.140674421E0,2.517845559E0,-1.466841289E0,3.615751181E0
1.086515425E1,2.566725358E0,2.388439075E0,-1.142283399E0,3.687483103E0
1.087509125E1,3.004457862E0,2.324540556E0,-9.935238004E-1,3.926492758E0
1.088502925E1,3.443834603E0,2.260441039E0,-9.703401750E-1,4.232156722E0
1.089496725E1,3.751608061E0,2.155601339E0,-9.303335255E-1,4.425686461E0
1.090490425E1,3.902044641E0,2.029339196E0,-8.133447737E-1,4.472773152E0
1.091484225E1,3.881393737E0,1.802153672E0,-6.117357016E-1,4.322868928E0
1.092478025E1,3.713316400E0,1.521443759E0,-2.814978254E-1,4.022778993E0
1.093471725E1,3.462089610E0,1.218638460E0,3.202192569E-1,3.684248164E0
1.094465525E1,3.242634836E0,8.902615334E-1,1.091882154E0,3.535456535E0
1.095459325E1,3.070138466E0,4.340145519E-1,1.987455736E0,3.682947072E0
1.096453025E1,2.949893984E0,-2.046088947E-1,3.068293669E0,4.261239885E0
1.097446825E1,2.959866410E0,-9.241659556E-1,4.351314871E0,5.343110797E0
1.098440625E1,3.097846959E0,-1.574296449E0,5.597850031E0,6.588701698E0
1.099434325E1,3.253918793E0,-2.128901052E0,6.549974375E0,7.617241726E0
1.100428125E1,3.410804559E0,-2.556005950E0,6.991635039E0,8.188389015E0
1.101421825E1,3.528450245E0,-2.593073496E0,6.782965454E0,8.073574898E0
1.102415625E1,3.539682747E0,-2.259539691E0,6.105739768E0,7.410460962E0
1.103409425E1,3.227508674E0,-1.829194998E0,5.201709357E0,6.389095931E0
1.104403125E1,2.529014325E0,-1.576454217E0,4.321765382E0,5.249645452E0
1.105396925E1,1.580580159E0,-1.588345407E0,3.866661385E0,4.469020590E0
1.106390725E1,5.446185829E-1,-1.894611600E0,3.888710650E0,4.359843235E0
1.107384425E1,-2.645881163E-1,-2.278804366E0,4.175842268E0,4.764516225E0
1.108378225E1,-7.064144021E-1,-2.457399090E0,4.444525335E0,5.127537133E0
1.109372025E1,-8.292148478E-1,-2.484279032E0,4.516568295E0,5.220979672E0
1.110365725E1,-8.487012787E-1,-2.501046508E0,4.392143054E0,5.125080302E0
1.111359525E1,-9.073349646E-1,-2.553881072E0,4.191677113E0,4.991565113E0
1.112353325E1,-9.339351180E-1,-2.627639604E0,4.002210953E0,4.877952153E0
1.113347025E1,-8.470355532E-1,-2.667607077E0,3.733858253E0,4.666400562E0
1.114340825E1,-6.711941372E-1,-2.657927012E0,3.412208768E0,4.377013393E0
1.115334625E1,-5.140167412E-1,-2.595764385E0,3.056419144E0,4.042759445E0
1.116328325E1,-4.020809338E-1,-2.493643933E0,2.609801795E0,3.631940880E0
1.117322125E1,-3.679198920E-1,-2.380376057E0,2.072817484E0,3.177755110E0
1.118315925E1,-4.271972832E-1,-2.315973216E0,1.430502598E0,2.755461329E0
1.119309625E1,-6.167577289E-1,-2.327065091E0,7.932712823E-1,2.534738914E0
1.120303425E1,-8.810426670E-1,-2.356525264E0,2.037731266E-1,2.524078245E0
1.121297225E1,-1.206244994E0,-2.441835848E0,-3.280235356E-1,2.743207745E0
1.122290925E1,-1.532030727E0,-2.530318254E0,-7.256751305E-1,3.045690892E0
1.123284725E1,-1.852181133E0,-2.611786340E0,-9.530926430E-1,3.340716753E0
1.124278525E1,-2.128162841E0,-2.672906701E0,-1.057697577E0,3.576622915E0
1.125272225E1,-2.294175380E0,-2.751190394E0,-1.154614007E0,3.763698017E0
1.126266025E1,-2.377517792E0,-2.790116478E0,-1.326224524E0,3.898231945E0
1.127259825E1,-2.438748080E0,-2.822142847E0,-1.632419234E0,4.071458584E0
1.128253525E1,-2.534209284E0,-2.901570255E0,-2.022089964E0,4.350882033E0
1.129247325E1,-2.722717669E0,-2.981440882E0,-2.477286347E0,4.736995766E0
1.130241125E1,-2.955030763E0,-3.068579013E0,-2.908046631E0,5.158015043E0
1.131234825E1,-3.227252858E0,-3.169460733E0,-3.307614359E0,5.603655511E0
1.132228625E1,-3.493044185E0,-3.304230283E0,-3.684685509E0,6.057739078E0
1.133222325E1,-3.687163559E0,-3.426035678E0,-4.020714467E0,6.441974884E0
1.134216125E1,-3.830898060E0,-3.500005880E0,-4.358195874E0,6.776407041E0
1.135209925E1,-3.860830541E0,-3.527821962E0,-4.699426516E0,7.031084542E0
1.136203521E1,-3.746045605E0,-3.519489680E0,-5.106713737E0,7.245563503E0
1.137197321E1,-3.497666994E0,-3.418248649E0,-5.499082373E0,7.359212265E0
1.138191121E1,-3.164953699E0,-3.273213435E0,-5.718497971E0,7.309724834E0
1.139184821E1,-2.768788466E0,-3.114234073E0,-5.743336358E0,7.095812565E0
1.140178621E1,-2.416020099E0,-2.949235295E0,-5.668279744E0,6.831144648E0
1.141172421E1,-2.152091694E0,-2.825439507E0,-5.622995397E0,6.650765694E0
1.142166121E1,-1.920121978E0,-2.707581567E0,-5.674295944E0,6.573849771E0
1.143159921E1,-1.704870475E0,-2.517138923E0,-5.686056449E0,6.447775557E0
1.144153721E1,-1.601024510E0,-2.235254304E0,-5.530940927E0,6.176645435E0
1.145147421E1,-1.606957680E0,-2.007340363E0,-5.157344193E0,5.762805518E0
1.146141221E1,-1.858585150E0,-1.859318976E0,-4.539746073E0,5.246017558E0
1.147135021E1,-2.267604317E0,-1.840278980E0,-3.830013961E0,4.816395229E0
1.148128721E1,-2.537081144E0,-1.915402252E0,-3.042795131E0,4.400471421E0
1.149122521E1,-2.451520299E0,-2.003060639E0,-2.142376546E0,3.822562094E0
1.150116321E1,-2.057055437E0,-2.045931255E0,-1.069672675E0,3.092169368E0
1.151110021E1,-1.453821587E0,-1.916714660E0,-1.804567695E-2,2.405767640E0
1.152103821E1,-1.027949867E0,-1.651061473E0,1.018147010E0,2.195292293E0
1.153097621E1,-9.525283867E-1,-1.209488664E0,2.029155740E0,2.547085819E0
1.154091321E1,-1.450010518E0,-7.236166182E-1,2.830666918E0,3.261721434E0
1.155085121E1,-2.661464577E0,-2.550250681E-1,3.270183992E0,4.224042474E0
1.156078921E1,-4.079456765E0,3.009072923E-1,3.346078513E0,5.284766230E0
1.157072621E1,-5.165207528E0,8.041785322E-1,3.056732554E0,6.055550003E0
1.158066421E1,-5.725422828E0,1.111768388E0,2.637821068E0,6.401140172E0
1.159060121E1,-5.712086499E0,1.078028784E0,2.438032819E0,6.303497621E0
1.160053921E1,-5.239284149E0,7.977107808E-1,2.758761953E0,5.974714085E0
1.161047721E1,-4.469770397E0,5.095453023E-1,3.534972230E0,5.721408260E0
1.162041421E1,-3.661871427E0,3.463828426E-1,4.447602140E0,5.771520443E0
1.163035221E1,-2.916391485E0,2.440557647E-1,5.211109341E0,5.976668225E0
1.164029021E1,-2.332590710E0,1.161898395E-1,5.689315102E0,6.150023238E0
1.165022721E1,-1.834450036E0,-2.319955900E-2,5.683569628E0,5.972328597E0
1.166016521E1,-1.440737565E0,-7.977385551E-2,5.183278348E0,5.380377592E0
1.167010321E1,-1.133057004E0,-2.410675451E-2,4.172640917E0,4.323809840E0
1.168004021E1,-8.438434120E-1,1.409265950E-1,2.852589884E0,2.978120389E0
1.168997821E1,-6.003295380E-1,3.759748701E-1,1.494343084E0,1.653727277E0
1.169991621E1,-3.153672008E-1,6.936798973E-1,2.646046346E-1,8.066373931E-1
1.170985321E1,-7.808792051E-2,1.012387722E0,-8.370622498E-1,1.315940665E0
1.171979121E1,1.667422348E-1,1.317417155E0,-1.761690062E0,2.206114868E0
1.172972921E1,3.814109534E-1,1.590812494E0,-2.506380923E0,2.993009194E0
1.173966621E1,5.174557811E-1,1.854174303E0,-3.007039992E0,3.570435876E0
1.174960421E1,5.799125958E-1,2.024607190E0,-3.228590993E0,3.854754557E0
1.175954221E1,6.621889134E-1,2.105892259E0,-3.186352462E0,3.876353747E0
1.176947921E1,8.261017171E-1,2.078939372E0,-2.925356728E0,3.682681760E0
1.177941721E1,9.663639222E-1,1.982823280E0,-2.604731090E0,3.413220098E0
1.178935521E1,1.136277139E0,1.917734414E0,-2.351989287E0,3.240475987E0
1.179929221E1,1.314798626E0,1.888804730E0,-2.176716658E0,3.167708027E0
1.180923021E1,1.499431915E0,1.920458486E0,-1.999280561E0,3.151758180E0
1.181916721E1,1.682601208E0,1.977441210E0,-1.758792182E0,3.136043766E0
1.182910521E1,1.818891473E0,1.962270755E0,-1.529746805E0,3.082044450E0
1.183904321E1,1.886445232E0,1.826783021E0,-1.245407233E0,2.906346675E0
1.184898021E1,1.883106911E0,1.574310920E0,-9.354504240E-1,2.626711634E0
1.185891821E1,1.911709735E0,1.296386036E0,-6.025696063E-1,2.387119812E0
1.186885621E1,1.967895777E0,1.079316926E0,-2.932437122E-1,2.263521745E0
1.187879321E1,2.097567139E0,8.780964012E-1,9.115458369E-2,2.275774671E0
1.188873121E1,2.230391028E0,6.834916357E-1,6.069556028E-1,2.410435658E0
1.189866921E1,2.424852610E0,4.633531027E-1,1.162634633E0,2.728795626E0
1.190860621E1,2.703160195E0,2.325567766E-1,1.747062083E0,3.226977473E0
1.191854421E1,3.030865642E0,3.203163207E-2,2.293104901E0,3.800723964E0
1.192848221E1,3.372576340E0,-9.746701844E-2,2.740060803E0,4.346458811E0
1.193841921E1,3.610483757E0,-1.632367194E-1,3.000357794E0,4.697274325E0
1.194835721E1,3.706103275E0,-2.036585943E-1,3.088710392E0,4.828748305E0
1.195829521E1,3.709525650E0,-2.456345860E-1,3.128787793E0,4.859035908E0
1.196823221E1,3.660993760E0,-2.278661402E-1,3.232121542E0,4.888906621E0
1.197817021E1,3.571990952E0,-1.998876518E-1,3.454808072E0,4.973406604E0
1.198810821E1,3.470278051E0,-1.534651449E-1,3.752293355E0,5.113324430E0
1.199804521E1,3.395230207E0,-1.031073157E-1,3.968119347E0,5.223427077E0
1.200798321E1,3.314510272E0,-8.789388388E-3,3.974326751E0,5.175067992E0
1.201792121E1,3.251770233E0,1.653775312E-1,3.791519401E0,4.997697344E0
1.202785821E1,3.217743824E0,3.772095828E-1,3.535047659E0,4.795072923E0
1.203779621E1,3.273941413E0,7.776906453E-1,3.287718038E0,4.704528139E0
1.204773321E1,3.362829324E0,1.280425915E0,3.078776557E0,4.735712900E0
1.205767121E1,3.333613418E0,1.778570974E0,3.078054426E0,4.873470240E0
1.206760921E1,2.929453872E0,2.000869688E0,3.402539812E0,4.915532186E0
1.207754621E1,1.862677909E0,1.719057867E0,4.051901177E0,4.779396624E0
1.208748421E1,4.176780892E-1,1.032488184E0,5.059711479E0,5.180846175E0
1.209742221E1,-1.088124368E0,1.224031274E-1,6.280658639E0,6.375395682E0
1.210735921E1,-2.183640200E0,-7.166996545E-1,7.204032224E0,7.561747364E0
1.211729721E1,-2.378617799E0,-1.266665808E0,7.304896109E0,7.786126898E0
1.212723521E1,-1.617301550E0,-1.487430213E0,6.457691864E0,6.821282662E0
1.213717221E1,-5.497464448E-1,-1.518159816E0,5.155064948E0,5.402011200E0
1.214711021E1,2.287068967E-1,-1.523487360E0,3.902411261E0,4.195489749E0
1.215704821E1,7.448414994E-1,-1.461073596E0,2.648197537E0,3.114879630E0
1.216698521E1,1.155977431E0,-1.318231088E0,1.422651542E0,2.257865016E0
1.217692321E1,1.374893677E0,-1.268499057E0,5.793362796E-1,1.958329136E0
1.218686121E1,1.389749844E0,-1.370552997E0,4.458209574E-2,1.952385133E0
1.219679821E1,1.210942647E0,-1.625166348E0,-2.663377494E-1,2.044133936E0
1.220673621E1,8.845321392E-1,-1.853316809E0,-3.196550006E-1,2.078306911E0
1.221667421E1,5.085434550E-1,-1.915332963E0,-2.545532709E-1,1.997977520E0
1.222661121E1,1.211161552E-1,-1.811340817E0,-1.389351064E-1,1.820694275E0
1.223654921E1,-2.626292990E-1,-1.777958478E0,-6.880535603E-2,1.798567395E0
1.224648621E1,-5.990785993E-1,-1.910008927E0,-1.214560246E-1,2.005437816E0
1.225642421E1,-8.543382870E-1,-2.165347479E0,-3.477239746E-1,2.353621799E0
1.226636221E1,-9.851853785E-1,-2.362709426E0,-6.322986048E-1,2.636813908E0
1.227629921E1,-1.013933360E0,-2.414940995E0,-9.556543082E-1,2.788059545E0
1.228623721E1,-1.001799365E0,-2.348163892E0,-1.337416679E0,2.882040771E0
1.229617521E1,-9.563242529E-1,-2.291077087E0,-1.790492277E0,3.060956205E0
1.230611221E1,-9.292844620E-1,-2.238561197E0,-2.301824854E0,3.342622249E0
1.231605021E1,-9.085804215E-1,-2.150500813E0,-2.833721504E0,3.671532335E0
1.232598821E1,-9.231099484E-1,-2.086259794E0,-3.363813118E0,4.064461907E0
1.233592521E1,-9.635624481E-1,-2.022511841E0,-3.909948907E0,4.506296394E0
1.234586321E1,-1.000465249E0,-1.971185713E0,-4.468146917E0,4.985061755E0
1.235580150E1,-1.039222056E0,-1.876220645E0,-4.928216954E0,5.374710108E0
1.236573850E1,-1.025908750E0,-1.749957770E0,-5.238107690E0,5.617171275E0
1.237567650E1,-1.017319922E0,-1.608248891E0,-5.472926023E0,5.794335473E0
1.238561450E1,-1.029765428E0,-1.472379772E0,-5.657909707E0,5.936350839E0
1.239555150E1,-1.084557493E0,-1.410138647E0,-5.831953835E0,6.097248682E0
1.240548950E1,-1.089403519E0,-1.360763296E0,-5.974249336E0,6.223353751E0
1.241542750E1,-1.171759505E0,-1.355550357E0,-6.050404058E0,6.310144718E0
1.242536450E1,-1.295657912E0,-1.448970006E0,-6.045082507E0,6.349902835E0
1.243530250E1,-1.387040244E0,-1.534079884E0,-5.843500332E0,6.198691625E0
1.244523950E1,-1.351675115E0,-1.527186309E0,-5.321730475E0,5.699134924E0
1.245517750E1,-1.173248718E0,-1.458601247E0,-4.482918153E0,4.858043363E0
1.246511550E1,-1.012779778E0,-1.405769022E0,-3.579119877E0,3.976431631E0
1.247505250E1,-1.099723855E0,-1.465940964E0,-2.767455593E0,3.319214655E0
1.248499050E1,-1.379147380E0,-1.707922137E0,-2.070516604E0,3.017628958E0
1.249492850E1,-1.670301590E0,-1.912676865E0,-1.380953878E0,2.890549049E0
1.250486550E1,-1.824867473E0,-1.991722303E0,-5.858582640E-1,2.764114494E0
1.251480350E1,-1.793982480E0,-2.033028497E0,2.123632711E-1,2.719683100E0
1.252474150E1,-1.591755942E0,-2.092690854E0,8.700879085E-1,2.769493628E0
1.253467850E1,-1.195230448E0,-2.102317856E0,1.305324236E0,2.748124370E0
1.254461650E1,-7.285966918E-1,-1.875898902E0,1.506625160E0,2.513915114E0
1.255455450E1,-4.373513021E-1,-1.488636493E0,1.355260043E0,2.060107899E0
1.256449150E1,-4.732285383E-1,-1.179083873E0,7.816417551E-1,1.491692952E0
1.257442950E1,-6.927615921E-1,-8.345461198E-1,1.501705313E-1,1.094959834E0
1.258436750E1,-1.077112014E0,-3.888418143E-1,-3.795819443E-1,1.206420615E0
1.259430450E1,-1.442790522E0,4.136462878E-2,-5.897431540E-1,1.559215351E0
1.260424250E1,-1.699546585E0,2.569236225E-1,-3.309173226E-1,1.750421269E0
1.261417950E1,-1.743623482E0,7.816378813E-2,6.469131356E-1,1.861405122E0
1.262411750E1,-1.645644759E0,-3.667033057E-1,2.156708071E0,2.737518528E0
1.263405550E1,-1.355016652E0,-8.666852675E-1,3.798616167E0,4.125130090E0
1.264399250E1,-8.428315513E-1,-1.222853352E0,5.295583481E0,5.499903612E0
1.265393050E1,-1.004109453E-2,-1.307421340E0,6.617751791E0,6.745671957E0
1.266386850E1,1.011521457E0,-9.941915524E-1,7.608041496E0,7.739114155E0
1.267380550E1,1.473038753E0,-4.754431712E-1,8.000611861E0,8.148968004E0
1.268374350E1,7.519400192E-1,-2.547874519E-1,7.636927911E0,7.678085592E0
1.269368150E1,-6.828089002E-1,-2.659576803E-1,6.776434699E0,6.815939312E0
1.270361850E1,-1.723389484E0,-2.898026258E-3,5.831964360E0,6.081273551E0
1.271355650E1,-1.921956104E0,5.709229403E-1,4.994412113E0,5.381823169E0
1.272349450E1,-1.550128737E0,9.936460803E-1,4.147587352E0,4.537919400E0
1.273343150E1,-8.754059511E-1,1.017043348E0,3.084156581E0,3.363440882E0
1.274336950E1,-1.516585746E-1,7.911687697E-1,1.924304638E0,2.086120007E0
1.275330750E1,3.473357195E-1,5.174592163E-1,9.447814107E-1,1.131820682E0
1.276324450E1,6.262470290E-1,3.608305450E-1,2.180262995E-1,7.549301231E-1
1.277318250E1,7.216934690E-1,3.744771058E-1,-5.056046444E-1,9.574500626E-1
1.278311950E1,6.421337678E-1,4.543852280E-1,-1.283131129E0,1.505067176E0
1.279305750E1,4.479761680E-1,5.888974639E-1,-2.086437988E0,2.213753904E0
1.280299550E1,2.130073419E-1,7.223938923E-1,-2.828236815E0,2.926798344E0
1.281293250E1,-1.269079685E-2,9.008647281E-1,-3.462239884E0,3.577544315E0
1.282287050E1,-1.550427237E-1,1.051639715E0,-3.931287736E0,4.072469472E0
1.283280850E1,-2.340666738E-1,1.206838413E0,-4.254491996E0,4.428537943E0
1.284274550E1,-2.190241999E-1,1.347108732E0,-4.428243179E0,4.633790153E0
1.285268350E1,-1.178039999E-1,1.478454444E0,-4.504264584E0,4.742162457E0
1.286262150E1,8.369127072E-2,1.581429759E0,-4.420631273E0,4.695732655E0
1.287255850E1,3.048353787E-1,1.566717288E0,-4.183712035E0,4.477831402E0
1.288249650E1,5.018789448E-1,1.433281341E0,-3.671878937E0,3.973521462E0
1.289243450E1,6.387902568E-1,1.147183584E0,-2.996627855E0,3.271675667E0
1.290237150E1,7.880118580E-1,8.629688504E-1,-2.310400380E0,2.589136505E0
1.291230950E1,9.913005428E-1,6.393642341E-1,-1.679986918E0,2.052758981E0
1.292224750E1,1.226601564E0,4.571105056E-1,-1.084780126E0,1.700073331E0
1.293218450E1,1.399745805E0,3.234430096E-1,-5.229802305E-1,1.528859713E0
1.294212250E1,1.472408716E0,1.850888972E-1,-1.115332997E-1,1.488181778E0
1.295205950E1,1.470693727E0,4.932301819E-2,2.032287508E-1,1.485488043E0
1.296199750E1,1.444582547E0,-3.679119252E-2,3.828394282E-1,1.494904129E0
1.297193550E1,1.321868202E0,-8.469563965E-2,4.918958473E-1,1.412965116E0
1.298187250E1,1.187190234E0,-1.290454913E-1,5.805267727E-1,1.327812006E0
1.299181050E1,1.091107398E0,-1.584156901E-1,7.222223496E-1,1.318034903E0
1.300174850E1,1.012997952E0,-1.916756760E-1,1.025031522E0,1.453820497E0
1.301168550E1,9.861165476E-1,-2.402477472E-1,1.492205926E0,1.804667103E0
1.302162350E1,9.602006646E-1,-4.082745970E-1,2.024700746E0,2.277737161E0
1.303156150E1,1.032296907E0,-5.805005334E-1,2.574345449E0,2.833702925E0
1.304149850E1,1.109080277E0,-7.221354454E-1,3.110386605E0,3.380243112E0
1.305143650E1,1.075615200E0,-8.573386395E-1,3.446467019E0,3.710810224E0
1.306137450E1,9.141175155E-1,-9.259249442E-1,3.386283967E0,3.627653090E0
1.307131150E1,7.064712663E-1,-8.477250861E-1,2.961176187E0,3.160111372E0
1.308124950E1,5.674897842E-1,-5.802772428E-1,2.272568310E0,2.413158316E0
1.309118750E1,4.732627445E-1,-2.202909992E-1,1.560798444E0,1.645781739E0
1.310112450E1,4.191040789E-1,2.466811280E-1,9.272345012E-1,1.047026088E0
1.311106250E1,4.652628764E-1,6.969790426E-1,3.775950605E-1,9.191449068E-1
1.312099950E1,4.266483393E-1,1.187298700E0,2.300470054E-2,1.261838430E0
1.313093750E1,2.105008598E-2,1.271011898E0,-1.396297556E-1,1.278831818E0
1.314087550E1,-8.326137612E-1,5.620237704E-1,2.533230168E-1,1.035996595E0
1.315081250E1,-1.562948465E0,-3.402002891E-1,1.669071336E0,2.311783568E0
1.316075050E1,-1.676713354E0,-9.333175790E-1,3.686815649E0,4.156327587E0
1.317068850E1,-1.372866886E0,-1.319822700E0,5.331019362E0,5.660959537E0
1.318062550E1,-8.166021113E-1,-1.590769517E0,5.795646719E0,6.065221146E0
1.319056350E1,-1.430525329E-1,-1.765845094E0,4.834974915E0,5.149335428E0
1.320050150E1,3.792749290E-1,-1.786751521E0,2.889356006E0,3.418290304E0
1.321043850E1,6.233369429E-1,-1.611363995E0,8.226821923E-1,1.913595793E0
1.322037650E1,8.021336878E-1,-1.189361305E0,-8.624157768E-1,1.673845793E0
1.323031450E1,8.910919842E-1,-7.518403242E-1,-1.914877757E0,2.241888851E0
1.324025150E1,7.943159605E-1,-5.256072383E-1,-2.292156483E0,2.482172870E0
1.325018950E1,5.230199550E-1,-5.366070203E-1,-2.102010877E0,2.231579417E0
1.326012650E1,1.809576566E-1,-7.036577323E-1,-1.504599100E0,1.670837613E0
1.327006450E1,-1.559909228E-1,-9.005261012E-1,-8.550909698E-1,1.251583395E0
1.328000250E1,-3.064176352E-1,-1.112960197E0,-4.574914151E-1,1.241720807E0
1.328993950E1,-3.290554230E-1,-1.310269519E0,-2.788496214E-1,1.379434955E0
1.329987750E1,-2.741461211E-1,-1.475059551E0,-1.634776247E-1,1.509199029E0
1.330981550E1,-1.658291555E-1,-1.593597961E0,-1.909899437E-1,1.613546073E0
1.331975250E1,-7.450178660E-2,-1.626269132E0,-3.227078319E-1,1.659651214E0
1.332969050E1,3.120037727E-2,-1.602453131E0,-6.149464077E-1,1.716679523E0
1.333962850E1,6.845225729E-2,-1.532539727E0,-1.018097309E0,1.841164267E0
1.334956550E1,6.972526923E-2,-1.412190581E0,-1.509437086E0,2.068222465E0
1.335950388E1,4.350372300E-2,-1.249837376E0,-1.974950296E0,2.337608759E0
1.336944188E1,-2.163031250E-3,-1.027625785E0,-2.426816105E0,2.635423276E0
1.337937888E1,-8.777935155E-2,-8.224200909E-1,-2.851149715E0,2.968692425E0
1.338931688E1,-1.898773648E-1,-5.890299399E-1,-3.240076094E0,3.298651661E0
1.339925388E1,-3.035136887E-1,-3.860580280E-1,-3.520046627E0,3.554136972E0
1.340919188E1,-4.772643596E-1,-2.113408855E-1,-3.720262308E0,3.756700397E0
1.341912988E1,-6.615249621E-1,-8.149966121E-2,-3.769953700E0,3.828421133E0
1.342906688E1,-8.761493515E-1,6.994293183E-3,-3.684770878E0,3.787508816E0
1.343900488E1,-1.112836674E0,6.638607055E-2,-3.524692824E0,3.696792134E0
1.344894288E1,-1.360634657E0,1.529842114E-1,-3.336888444E0,3.606876117E0
1.345887988E1,-1.625415731E0,2.048991542E-1,-3.144833722E0,3.545975057E0
1.346881788E1,-1.857966076E0,2.248083387E-1,-2.911157935E0,3.460840541E0
1.347875588E1,-1.957006653E0,2.609901783E-1,-2.626382745E0,3.285708027E0
1.348869288E1,-1.951684518E0,2.074988262E-1,-2.237509575E0,2.976336224E0
1.349863088E1,-1.835819308E0,8.165125027E-2,-1.816659737E0,2.584018587E0
1.350856888E1,-1.595161361E0,-6.283140197E-2,-1.416279831E0,2.134089059E0
1.351850588E1,-1.360756133E0,-1.692328928E-1,-1.006577709E0,1.701027839E0
1.352844388E1,-1.173751651E0,-3.021877594E-1,-5.746842349E-1,1.341369580E0
1.353838088E1,-9.855272944E-1,-4.374568078E-1,-8.214928687E-2,1.081379218E0
1.354831888E1,-8.484859550E-1,-6.136030830E-1,4.088355643E-1,1.124092380E0
1.355825688E1,-8.324509893E-1,-8.161724871E-1,8.751252848E-1,1.457723034E0
1.356819388E1,-9.560995006E-1,-1.082145443E0,1.351660497E0,1.977915851E0
1.357813188E1,-1.135341438E0,-1.275993725E0,1.777834225E0,2.465330545E0
1.358806988E1,-1.228845871E0,-1.317559827E0,2.137519848E0,2.795535222E0
1.359800688E1,-1.248967310E0,-1.243377956E0,2.340470856E0,2.929797248E0
1.360794488E1,-1.224236000E0,-1.093130023E0,2.407251906E0,2.913511416E0
1.361788288E1,-1.181170087E0,-8.528297053E-1,2.183699988E0,2.625076555E0
1.362781988E1,-1.085210042E0,-5.369799996E-1,1.702871751E0,2.089449821E0
1.363775788E1,-9.379787600E-1,-1.983719073E-2,1.070930995E0,1.423759413E0
1.364769588E1,-9.235852540E-1,4.886022935E-1,4.970565999E-1,1.157068358E0
1.365763288E1,-1.059227428E0,6.886686873E-1,1.335024583E-1,1.270452758E0
1.366757088E1,-1.176544428E0,6.926086874E-1,6.212783575E-2,1.366683377E0
1.367750788E1,-1.208267327E0,3.900769290E-1,4.671638793E-1,1.352890252E0
1.368744588E1,-1.180567166E0,-9.837658938E-2,1.537529449E0,1.940982636E0
1.369738388E1,-1.008943785E0,-4.557681311E-1,2.965124227E0,3.165067745E0
1.370732088E1,-7.893645383E-1,-6.329727888E-1,4.177098835E0,4.297895485E0
1.371725888E1,-5.696966695E-1,-7.379380573E-1,4.882560725E0,4.970765143E0
1.372719688E1,-4.040548807E-1,-7.109272832E-1,4.943196352E0,5.010376046E0
1.373713388E1,-3.677928978E-1,-5.461272011E-1,4.322735435E0,4.372592843E0
1.374707188E1,-3.829233723E-1,-3.674979058E-1,3.269052556E0,3.311855920E0
1.375700988E1,-5.381483829E-1,-3.346045403E-1,2.282525534E0,2.368857677E0
1.376694688E1,-6.984029858E-1,-3.737852706E-1,1.545710873E0,1.736866219E0
1.377688488E1,-6.900034605E-1,-4.222478344E-1,1.062636720E0,1.335512938E0
1.378682288E1,-4.946001480E-1,-4.604115877E-1,7.299038368E-1,9.946696676E-1
1.379675988E1,-2.126108642E-1,-5.341718012E-1,4.424096918E-1,7.254441592E-1
1.380669788E1,3.390336234E-2,-5.248227246E-1,2.416595757E-1,5.787812029E-1
1.381663488E1,1.623816737E-1,-4.578453910E-1,6.972746193E-2,4.907668784E-1
1.382657288E1,1.893032413E-1,-4.000026141E-1,-1.281160033E-1,4.607076283E-1
1.383651088E1,9.209233090E-2,-2.803718709E-1,-3.276797193E-1,4.409800243E-1
1.384644788E1,-4.351797558E-2,-1.472611395E-1,-5.617823535E-1,5.823908225E-1
1.385638588E1,-1.742634717E-1,-1.638236336E-2,-8.436596632E-1,8.616250732E-1
1.386632388E1,-2.840496234E-1,5.341294454E-2,-1.086685148E0,1.124465092E0
1.387626088E1,-3.722549446E-1,1.054522320E-1,-1.230607345E0,1.289995486E0
1.388619888E1,-4.106153836E-1,1.766067069E-1,-1.245066925E0,1.322870579E0
1.389613688E1,-3.589450007E-1,2.240310245E-1,-1.214312909E0,1.285918837E0
1.390607388E1,-1.773672469E-1,3.056895838E-1,-1.081572343E0,1.137850603E0
1.391601188E1,9.694361955E-2,3.437479045E-1,-9.749126977E-1,1.038275231E0
1.392594888E1,3.629256389E-1,3.262524505E-1,-9.077316982E-1,1.030598135E0
1.393588688E1,6.167403334E-1,2.734167906E-1,-9.294967890E-1,1.148516287E0
1.394582488E1,8.371726891E-1,2.504112495E-1,-1.045759317E0,1.362782614E0
1.395576188E1,1.027884305E0,2.934060455E-1,-1.133872179E0,1.558300154E0
1.396569988E1,1.216020735E0,3.992364096E-1,-1.187815667E0,1.746139226E0
1.397563788E1,1.285875958E0,5.175478747E-1,-1.218086118E0,1.845282247E0
1.398557488E1,1.264397820E0,6.589909250E-1,-1.262540159E0,1.904462795E0
1.399551288E1,1.212850374E0,8.030870763E-1,-1.343772018E0,1.980322731E0
1.400545088E1,1.163043718E0,9.651390767E-1,-1.400761321E0,2.060654363E0
1.401538788E1,1.057884615E0,1.080576197E0,-1.456817408E0,2.099781354E0
1.402532588E1,9.131671236E-1,1.154583528E0,-1.439720149E0,2.059060812E0
1.403526388E1,7.847730122E-1,1.157945970E0,-1.306812937E0,1.914279917E0
1.404520088E1,6.575702709E-1,1.122001308E0,-1.085511028E0,1.693995215E0
1.405513888E1,5.552792265E-1,1.043028813E0,-7.401300323E-1,1.394287126E0
1.406507588E1,5.212407934E-1,9.089163440E-1,-3.219599730E-1,1.096120025E0
1.407501388E1,5.773423060E-1,7.241500305E-1,1.233440906E-1,9.343078559E-1
1.408495188E1,7.182803030E-1,5.213506114E-1,5.719740504E-1,1.055882270E0
1.409488888E1,9.125593056E-1,3.624151039E-1,9.463414478E-1,1.363697668E0
1.410482688E1,1.099879683E0,2.717237659E-1,1.117726847E0,1.591503197E0
1.411476488E1,1.183855348E0,2.026219560E-1,1.064573318E0,1.604956538E0
1.412470188E1,1.058450260E0,1.316523993E-1,8.672941089E-1,1.374717563E0
1.413463988E1,7.708392435E-1,1.045869537E-1,7.813388693E-1,1.102552493E0
1.414457788E1,4.153012326E-1,7.311446160E-2,8.524725866E-1,9.510680045E-1
1.415451488E1,1.046342796E-1,4.876987159E-2,1.020708091E0,1.027215576E0
1.416445288E1,-6.831207030E-2,7.410775736E-2,1.242254999E0,1.246337025E0
1.417439088E1,-4.211303584E-2,2.599391413E-1,1.408882518E0,1.433280090E0
1.418432788E1,1.548829851E-1,6.442523602E-1,1.327683404E0,1.483844016E0
1.419426588E1,4.868987437E-1,9.671771237E-1,8.551605517E-1,1.379783151E0
1.420420288E1,6.654052475E-1,1.051166091E0,2.509268278E-1,1.269125119E0
1.421414088E1,5.872556389E-1,9.280474104E-1,-3.638026482E-1,1.156932819E0
1.422407888E1,4.301072963E-2,3.190952758E-1,-5.706671977E-1,6.552348956E-1
1.423401588E1,-7.754232413E-1,-5.659328534E-1,1.866109639E-1,9.779493082E-1
1.424395388E1,-1.297836584E0,-1.223821359E0,1.669684709E0,2.443351294E0
1.425389188E1,-1.223085925E0,-1.476745157E0,3.094519016E0,3.640434504E0
1.426382888E1,-7.678532166E-1,-1.461866917E0,3.832747534E0,4.173320872E0
1.427376688E1,-2.331282322E-1,-1.406368947E0,3.360541016E0,3.650405225E0
1.428370488E1,2.784430024E-1,-1.379734148E0,1.802543389E0,2.286997922E0
1.429364188E1,5.999225718E-1,-1.268679736E0,2.351574719E-2,1.403569861E0
1.430357988E1,8.837159409E-1,-9.838808647E-1,-1.259706599E0,1.826427150E0
1.431351688E1,1.125694848E0,-5.852937153E-1,-1.810870993E0,2.211110892E0
1.432345488E1,1.091047975E0,-3.510627347E-1,-1.571441545E0,1.945008807E0
1.433339288E1,6.729871128E-1,-4.912032446E-1,-6.547630227E-1,1.059673014E0
1.434332988E1,2.886715550E-2,-8.291831267E-1,4.702769369E-1,9.536972096E-1
1.435326788E1,-4.534475173E-1,-1.050500824E0,1.267055379E0,1.707218781E0
1.436320583E1,-7.746097474E-1,-1.172214126E0,1.551609544E0,2.093226790E0
1.437314283E1,-9.141873166E-1,-1.269282437E0,1.461812684E0,2.140960691E0
1.438308083E1,-8.936786462E-1,-1.335869360E0,1.237607047E0,2.028516619E0
1.439301883E1,-8.420946559E-1,-1.350865714E0,9.931226814E-1,1.876234060E0
1.440295583E1,-7.874451166E-1,-1.302243192E0,7.233841914E-1,1.684990158E0
1.441289383E1,-7.719064334E-1,-1.231970185E0,4.463208944E-1,1.520786776E0
1.442283083E1,-8.514444999E-1,-1.165195713E0,1.774261576E-1,1.454000972E0
1.443276883E1,-9.540866697E-1,-1.088604205E0,-1.290217370E-1,1.453267730E0
1.444270683E1,-9.902131069E-1,-9.597735254E-1,-5.052128810E-1,1.468648110E0
1.445264383E1,-9.384705108E-1,-7.806700940E-1,-9.526254505E-1,1.548440488E0
1.446258183E1,-8.252261697E-1,-5.685108908E-1,-1.469531593E0,1.778686585E0
1.447251983E1,-7.366915040E-1,-4.265697308E-1,-1.980886974E0,2.156058745E0
1.448245683E1,-6.521975568E-1,-2.758343585E-1,-2.494009384E0,2.592591185E0
1.449239483E1,-4.984624167E-1,-1.182874185E-1,-2.888943193E0,2.934015928E0
1.450233283E1,-3.361280323E-1,5.997942254E-2,-3.173747619E0,3.192061016E0
1.451226983E1,-2.115022686E-1,2.667162104E-1,-3.302896240E0,3.320390688E0
1.452220783E1,-1.562254693E-1,4.331479946E-1,-3.226271403E0,3.258964674E0
1.453214483E1,-1.477337407E-1,5.755778356E-1,-2.950586879E0,3.009830234E0
1.454208283E1,-1.451666303E-1,6.552046336E-1,-2.572895924E0,2.658977228E0
1.455202083E1,-1.282538148E-1,6.452139348E-1,-2.173069165E0,2.270458029E0
1.456195783E1,-5.356345553E-2,5.992106733E-1,-1.880666867E0,1.974545604E0
1.457189583E1,5.332434095E-2,5.687569124E-1,-1.647479323E0,1.743707553E0
1.458183383E1,2.047163190E-1,5.618051577E-1,-1.364105710E0,1.489401959E0
1.459177083E1,3.298153052E-1,5.219060969E-1,-1.024802311E0,1.196404566E0
1.460170883E1,3.601381616E-1,4.319819136E-1,-7.203331143E-1,9.138860239E-1
1.461164683E1,3.850555960E-1,3.254799968E-1,-4.686788929E-1,6.883784896E-1
1.462158383E1,3.502861879E-1,2.607907882E-1,-2.329676896E-1,4.949607996E-1
1.463152183E1,2.352964529E-1,1.576285087E-1,-2.976174295E-2,2.847752251E-1
1.464145883E1,4.732363589E-2,2.341195911E-2,8.984422266E-2,1.042095518E-1
1.465139683E1,-1.291446016E-1,-1.421224236E-1,1.966594040E-1,2.748673000E-1
1.466133483E1,-2.821302748E-1,-3.041657263E-1,3.569988281E-1,5.473229799E-1
1.467127183E1,-3.527829125E-1,-4.094707181E-1,5.882942140E-1,7.988818026E-1
1.468120983E1,-3.987301138E-1,-5.152931884E-1,8.111345261E-1,1.040409531E0
1.469114783E1,-4.411146797E-1,-6.478789495E-1,9.390435380E-1,1.223164772E0
1.470108483E1,-3.936241789E-1,-7.046758787E-1,1.008184524E0,1.291489111E0
1.471102283E1,-1.708175614E-1,-3.015716091E-1,9.738485044E-1,1.033685148E0
1.472096083E1,8.815386571E-2,3.798895079E-1,7.223726231E-1,8.209198188E-1
1.473089783E1,7.051413171E-2,4.468806191E-1,2.556665808E-1,5.196536645E-1
1.474083583E1,-1.540721590E-1,1.116533138E-1,-2.007664883E-1,2.766078008E-1
1.475077283E1,-3.487070012E-1,-1.117288890E-1,-3.628869742E-1,5.155258222E-1
1.476071083E1,-5.205832009E-1,-1.894937874E-1,-7.776095152E-2,5.594296472E-1
1.477064883E1,-6.333319540E-1,-3.026480815E-1,6.008657277E-1,9.239831427E-1
1.478058583E1,-5.847834726E-1,-4.569461623E-1,1.269555649E0,1.470558754E0
1.479052383E1,-4.785721259E-1,-5.468566047E-1,1.774389045E0,1.917430549E0
1.480046183E1,-3.195124747E-1,-5.422147925E-1,2.045605711E0,2.140230789E0
1.481039883E1,-1.776875281E-1,-4.891358154E-1,2.102988532E0,2.166422735E0
1.482033683E1,-4.727320366E-2,-4.130590081E-1,1.972935930E0,2.016266026E0
1.483027483E1,-1.525485573E-2,-3.162071899E-1,1.719655598E0,1.748552280E0
1.484021183E1,-8.261881828E-2,-1.615721633E-1,1.467779768E0,1.478955334E0
1.485014983E1,-2.457561898E-1,-1.652379289E-2,1.217445847E0,1.242112528E0
1.486008683E1,-4.676651318E-1,5.203364119E-2,1.039879941E0,1.141388833E0
1.487002483E1,-6.828316312E-1,-4.963774458E-2,9.498398370E-1,1.170862357E0
1.487996283E1,-7.890246689E-1,-3.066130784E-1,9.427880949E-1,1.267052051E0
1.488989983E1,-7.223441179E-1,-5.244391108E-1,9.934664977E-1,1.335587170E0
1.489983783E1,-5.239570078E-1,-6.755375952E-1,1.060647497E0,1.362297729E0
1.490977583E1,-3.216608148E-1,-6.712350677E-1,1.112107088E0,1.338209390E0
1.491971283E1,-2.725497582E-1,-6.316828930E-1,1.085036234E0,1.284760786E0
1.492965083E1,-3.780835222E-1,-5.896811736E-1,1.002246677E0,1.222771212E0
1.493958883E1,-6.126817445E-1,-5.614987636E-1,9.454105711E-1,1.258753721E0
1.494952583E1,-8.940031667E-1,-4.953385417E-1,8.842954731E-1,1.351510421E0
1.495946383E1,-1.124533810E0,-4.696235105E-1,7.215943587E-1,1.416270084E0
1.496940083E1,-1.263359500E0,-4.422481625E-1,5.193309832E-1,1.435745567E0
1.497933883E1,-1.328395156E0,-4.356044099E-1,3.650978065E-1,1.444881068E0
1.498927683E1,-1.347860684E0,-4.267833003E-1,2.454742992E-1,1.434966912E0
1.499921383E1,-1.369790227E0,-3.997143464E-1,7.419824302E-2,1.428846459E0
1.500915183E1,-1.328753737E0,-3.436785784E-1,-1.173150265E-1,1.377484764E0
1.501908983E1,-1.240368102E0,-2.435401864E-1,-3.667560768E-1,1.316181929E0
1.502902683E1,-1.182465172E0,-1.467749070E-1,-6.529445386E-1,1.358713850E0
1.503896483E1,-1.127132751E0,-5.626117811E-2,-9.760868186E-1,1.492092167E0
1.504890283E1,-1.102462837E0,1.578616664E-2,-1.307389473E0,1.710245814E0
1.505883983E1,-1.108812036E0,9.342213392E-2,-1.609797526E0,1.956946576E0
1.506877783E1,-1.118288764E0,2.018236649E-1,-1.860695118E0,2.180249727E0
1.507871483E1,-1.188924445E0,2.986211041E-1,-1.994372993E0,2.340991143E0
1.508865283E1,-1.240982498E0,3.761942138E-1,-1.989471272E0,2.374774850E0
1.509859083E1,-1.307290509E0,4.073649895E-1,-1.901859516E0,2.343506844E0
1.510852783E1,-1.353578383E0,3.865991879E-1,-1.710114697E0,2.214977573E0
1.511846583E1,-1.356863349E0,3.594343396E-1,-1.432442120E0,2.005532752E0
1.512840383E1,-1.344472076E0,3.187469280E-1,-1.146464158E0,1.795434441E0
1.513834083E1,-1.259231805E0,2.700665188E-1,-9.376033688E-1,1.593016240E0
1.514827883E1,-1.198583095E0,2.188045639E-1,-8.619556010E-1,1.492462506E0
1.515821583E1,-1.210701669E0,1.899408071E-1,-8.750597960E-1,1.505857127E0
1.516815383E1,-1.283398932E0,1.322793670E-1,-9.778339666E-1,1.618879216E0
1.517809183E1,-1.351894531E0,1.107705304E-1,-1.042911138E0,1.711009227E0
1.518802883E1,-1.422148097E0,7.870907754E-2,-9.888840348E-1,1.733952699E0
1.519796683E1,-1.484599430E0,2.908682808E-2,-7.089064854E-1,1.645426970E0
1.520790483E1,-1.512901707E0,-9.794086218E-6,-2.790513504E-1,1.538421669E0
1.521784183E1,-1.390095853E0,-1.146141976E-1,3.176412195E-1,1.430523974E0
1.522777983E1,-1.290849015E0,-2.650165710E-1,9.057535851E-1,1.599035497E0
1.523771783E1,-1.311238402E0,-4.370011635E-1,1.303429738E0,1.899801371E0
1.524765483E1,-1.389015872E0,-5.142450750E-1,1.431707709E0,2.060000014E0
1.525759283E1,-1.525322363E0,-4.283965471E-1,1.270246789E0,2.030679398E0
1.526752983E1,-1.580776918E0,-1.998780039E-1,9.595561552E-1,1.859987875E0
1.527746783E1,-1.612699353E0,1.112247129E-1,6.327160960E-1,1.735943489E0
1.528740583E1,-1.459876817E0,6.248379962E-1,3.450740165E-1,1.625035052E0
1.529734283E1,-9.589269217E-1,1.525509620E0,-2.371045947E-3,1.801867382E0
1.530728083E1,-5.859996935E-1,2.349524978E0,-4.169438982E-1,2.457133589E0
1.531721883E1,-1.083855827E0,2.159193138E0,-9.233051723E-1,2.586377950E0
1.532715583E1,-2.179076302E0,8.024467331E-1,-1.120675598E0,2.578411931E0
1.533709383E1,-3.090683827E0,-6.761965764E-1,-1.012673432E-1,3.165410464E0
1.534703183E1,-3.438513929E0,-1.628678039E0,2.339991385E0,4.466713543E0
1.535696883E1,-3.302607388E0,-2.059869848E0,5.053112896E0,6.378419027E0
1.536690671E1,-2.755711461E0,-2.180275274E0,6.653133293E0,7.524076590E0
1.537684371E1,-2.107863648E0,-2.281898859E0,6.616966510E0,7.309883539E0
1.538678171E1,-1.564217749E0,-2.291047997E0,5.144103758E0,5.844440227E0
1.539671971E1,-1.026853514E0,-2.131717802E0,2.775643449E0,3.647306607E0
1.540665671E1,-7.525570466E-1,-1.825344021E0,3.756309807E-1,2.009806343E0
1.541659471E1,-6.148330448E-1,-1.333451390E0,-1.429084064E0,2.048998180E0
1.542653271E1,-6.003179897E-1,-8.269459820E-1,-2.470843885E0,2.673815785E0
1.543646971E1,-7.496297112E-1,-5.106575158E-1,-2.725859086E0,2.872807609E0
1.544640771E1,-9.605816106E-1,-6.090994844E-1,-2.288728845E0,2.555777561E0
1.545634471E1,-1.192781926E0,-9.815843707E-1,-1.245519499E0,1.984327449E0
1.546628271E1,-1.324788886E0,-1.376502977E0,-8.415722072E-2,1.912304494E0
1.547622071E1,-1.177457032E0,-1.605855626E0,7.097350359E-1,2.113977572E0
1.548615771E1,-1.081338747E0,-1.719583239E0,1.050899604E0,2.287061429E0
1.549609571E1,-1.046792154E0,-1.795360815E0,1.127907434E0,2.364586528E0
1.550603371E1,-1.119557391E0,-1.765492945E0,1.027648151E0,2.329470930E0
1.551597071E1,-1.186840351E0,-1.594526499E0,7.375063866E-1,2.120146327E0
1.552590871E1,-1.216082496E0,-1.357752418E0,2.433318794E-1,1.838901485E0
1.553584671E1,-1.322345042E0,-1.093814220E0,-2.856551957E-1,1.739719762E0
1.554578371E1,-1.376015904E0,-8.563868590E-1,-8.387854242E-1,1.824932658E0
1.555572171E1,-1.323486857E0,-6.224548173E-1,-1.332278146E0,1.978391397E0
1.556565871E1,-1.175607923E0,-3.659813207E-1,-1.689829536E0,2.090818064E0
1.557559671E1,-9.905898137E-1,-1.680948785E-1,-1.899117756E0,2.148527943E0
1.558553471E1,-8.630282727E-1,-7.837052375E-2,-2.003531486E0,2.182910478E0
1.559547171E1,-7.549566709E-1,-9.719124913E-2,-2.031296990E0,2.169233315E0
1.560540971E1,-7.810976717E-1,-1.532783264E-1,-1.954930599E0,2.110772718E0
1.561534771E1,-9.687988490E-1,-2.064771715E-1,-1.728673759E0,1.992364675E0
1.562528471E1,-1.225632973E0,-2.282311526E-1,-1.409068460E0,1.881419562E0
1.563522271E1,-1.403291118E0,-2.052878478E-1,-1.096428949E0,1.792630889E0
1.564516071E1,-1.537962289E0,-2.193767139E-1,-8.702557236E-1,1.780673796E0
1.565509771E1,-1.660859068E0,-2.600391287E-1,-7.342360389E-1,1.834441537E0
1.566503571E1,-1.709885486E0,-3.015412036E-1,-6.115439129E-1,1.840820857E0
1.567497271E1,-1.722327776E0,-3.484455210E-1,-5.870680529E-1,1.852694294E0
1.568491071E1,-1.726585718E0,-3.572409028E-1,-6.471189576E-1,1.878159272E0
1.569484871E1,-1.734109623E0,-3.779303983E-1,-8.135605359E-1,1.952395533E0
1.570478571E1,-1.702778049E0,-3.789805582E-1,-9.989511859E-1,2.010219595E0
1.571472371E1,-1.633438111E0,-3.752298617E-1,-1.107616426E0,2.008913054E0
1.572466171E1,-1.502301729E0,-3.464855343E-1,-1.085546111E0,1.885569693E0
1.573459871E1,-1.301415519E0,-3.117698841E-1,-9.427559352E-1,1.636970240E0
1.574453671E1,-1.040898526E0,-3.258220589E-1,-7.240361559E-1,1.309144038E0
1.575447371E1,-8.078840590E-1,-3.806006755E-1,-4.380985397E-1,9.947179788E-1
1.576441171E1,-5.463093053E-1,-4.652183644E-1,-9.755903900E-2,7.241545068E-1
1.577434971E1,-3.347147603E-1,-4.654683329E-1,2.572178471E-1,6.283754933E-1
1.578428671E1,-2.615028146E-1,-4.582838590E-1,5.037235951E-1,7.294828839E-1
1.579422471E1,-2.933603824E-1,-4.234164736E-1,5.807279170E-1,7.762646054E-1
1.580416271E1,-4.001876054E-1,-2.764412995E-1,5.978953421E-1,7.707455817E-1
1.581409971E1,-5.093616267E-1,-6.230427548E-2,5.864090717E-1,7.792346815E-1
1.582403771E1,-5.476610719E-1,2.703613646E-1,5.222177535E-1,8.035790560E-1
1.583397471E1,-5.240047723E-1,6.297403018E-1,3.724951190E-1,8.999480334E-1
1.584391271E1,-5.458984653E-1,7.667907044E-1,9.027282357E-2,9.455804046E-1
1.585385071E1,-6.939588826E-1,5.659676443E-1,-2.114458430E-1,9.201128462E-1
1.586378771E1,-9.535520880E-1,1.602017221E-1,-3.796907026E-1,1.038793149E0
1.587372571E1,-1.327456971E0,-2.597676717E-1,-1.889258766E-1,1.365765075E0
1.588366371E1,-1.660346267E0,-5.849493143E-1,5.871809042E-1,1.855720033E0
1.589360071E1,-1.887187390E0,-9.501419918E-1,1.729161417E0,2.730246373E0
1.590353871E1,-1.985419297E0,-1.321348823E0,2.945510327E0,3.789971449E0
1.591347671E1,-1.965439508E0,-1.591628911E0,4.040300301E0,4.766577553E0
1.592341371E1,-1.912673357E0,-1.775131642E0,4.709782519E0,5.384372117E0
1.593335171E1,-1.837590722E0,-1.931487358E0,4.701811010E0,5.405035601E0
1.594328871E1,-1.840951556E0,-2.037991029E0,3.886090513E0,4.758593231E0
1.595322671E1,-1.760037347E0,-1.945389551E0,2.491728970E0,3.618146656E0
1.596316471E1,-1.744291964E0,-1.713568793E0,1.186877773E0,2.718005025E0
1.597310171E1,-1.724138951E0,-1.438323249E0,2.096641964E-1,2.255080479E0
1.598303971E1,-1.642373972E0,-1.186459990E0,-4.442808008E-1,2.074238415E0
1.599297771E1,-1.586532917E0,-1.024472528E0,-8.149182594E-1,2.056872000E0
1.600291471E1,-1.565524017E0,-9.493727906E-1,-1.065082026E0,2.118153409E0
1.601285271E1,-1.593594014E0,-8.725653738E-1,-1.311802366E0,2.240923395E0
1.602278971E1,-1.704993120E0,-7.702687745E-1,-1.513996160E0,2.406761288E0
1.603272771E1,-1.852869204E0,-5.988870299E-1,-1.636459075E0,2.543577848E0
1.604266571E1,-1.959667721E0,-4.477889840E-1,-1.722510794E0,2.647235537E0
1.605260271E1,-2.047417471E0,-3.509609932E-1,-1.812533941E0,2.756877075E0
1.606254071E1,-2.084955865E0,-3.121302187E-1,-1.903606664E0,2.840454992E0
1.607247871E1,-2.029138929E0,-3.601434606E-1,-1.924418074E0,2.819661864E0
1.608241571E1,-1.837699773E0,-4.570556514E-1,-1.728355086E0,2.563835335E0
1.609235371E1,-1.612990690E0,-5.815140751E-1,-1.344992917E0,2.179197910E0
1.610229171E1,-1.348765686E0,-7.181646743E-1,-8.435625994E-1,1.745430387E0
1.611222871E1,-1.119123820E0,-8.438666546E-1,-4.588169789E-1,1.474809166E0
1.612216671E1,-8.445418619E-1,-8.973732094E-1,-2.422858125E-1,1.255878994E0
1.613210371E1,-5.154345448E-1,-8.671621080E-1,-1.515188992E-1,1.020098460E0
1.614204171E1,-2.260226592E-1,-7.389124958E-1,-2.243336910E-1,8.046138974E-1
1.615197971E1,4.750862718E-5,-5.395635188E-1,-4.292248052E-1,6.894655368E-1
1.616191671E1,7.101081613E-2,-2.938798892E-1,-6.838570136E-1,7.477087269E-1
1.617185471E1,1.305621129E-2,-2.150971368E-2,-8.858683741E-1,8.862256534E-1
1.618179271E1,-1.100314789E-1,2.607093658E-1,-9.445194554E-1,9.859986316E-1
1.619172971E1,-1.948800598E-1,4.946941786E-1,-8.921541309E-1,1.038575737E0
1.620166771E1,-2.784966689E-1,6.954853714E-1,-7.972023654E-1,1.093979848E0
1.621160471E1,-3.467172302E-1,8.626503964E-1,-7.340495127E-1,1.184570484E0
1.622154271E1,-4.016406750E-1,9.987181744E-1,-6.657201201E-1,1.265676302E0
1.623148071E1,-4.069348172E-1,1.115494965E0,-6.324933171E-1,1.345352280E0
1.624141771E1,-3.966804454E-1,1.188038007E0,-5.763232094E-1,1.378745127E0
1.625135571E1,-3.707893400E-1,1.189123543E0,-4.479341412E-1,1.323685963E0
